loggingTime,loggingSample,locationTimestamp_since1970,locationLatitude,locationLongitude,locationAltitude,locationSpeed,locationCourse,locationVerticalAccuracy,locationHorizontalAccuracy,locationFloor,locationHeadingTimestamp_since1970,locationHeadingX,locationHeadingY,locationHeadingZ,locationTrueHeading,locationMagneticHeading,locationHeadingAccuracy,accelerometerTimestamp_sinceReboot,accelerometerAccelerationX,accelerometerAccelerationY,accelerometerAccelerationZ,gyroTimestamp_sinceReboot,gyroRotationX,gyroRotationY,gyroRotationZ
2015-05-21 13:10:33.040,1,1432177832.409872,-33.88897052969214,151.1932511163421,13.27283,0.53,306.9140625,8,5,-9999,1432177833.011696,17.60760498046875,-14.79436874389648,72.38043212890625,208.9425964355469,196.3920135498047,26,8169.047915666667,-0.0076446533203125,-0.0253143310546875,-1.0240478515625,8169.016422666667,0.02051006881913624,-0.009800965443709612,-0.02714000835288851
2015-05-21 13:10:33.096,2,1432177832.409872,-33.88897052969214,151.1932511163421,13.27283,0.53,306.9140625,8,5,-9999,1432177833.090489,16.95071411132812,-15.58683395385742,72.214599609375,208.9409790039062,196.3903961181641,26,8169.106146666667,-0.0070037841796875,-0.02490234375,-1.020309448242188,8169.082654666667,0.01805703113906426,-0.01340582029524087,-0.02588539316335218
2015-05-21 13:10:33.154,3,1432177832.409872,-33.88897052969214,151.1932511163421,13.27283,0.53,306.9140625,8,5,-9999,1432177833.129849,16.84698486328125,-15.62129592895508,72.31410217285156,208.9400024414062,196.3894195556641,26,8169.164369666667,-0.0072021484375,-0.0260467529296875,-1.022125244140625,8169.148898666667,0.01563408717931017,-0.01218582619987557,-0.02341318072343162
2015-05-21 13:10:33.212,4,1432177832.409872,-33.88897052969214,151.1932511163421,13.27283,0.53,306.9140625,8,5,-9999,1432177833.208686,17.64215087890625,-15.6557502746582,72.28092956542969,208.9375,196.3869171142578,26,8169.222567666668,-0.007843017578125,-0.0237274169921875,-1.02099609375,8169.215121666667,0.01929833052315019,-0.01580932317903738,-0.02466859486129497
2015-05-21 13:10:33.284,5,1432177832.409872,-33.88897052969214,151.1932511163421,13.27283,0.53,306.9140625,8,5,-9999,1432177833.246485,17.81503295898438,-15.62129592895508,72.645751953125,208.9360198974609,196.3854370117188,26,8169.280794666667,-0.006866455078125,-0.024444580078125,-1.019393920898438,8169.248233666667,0.01807114589284168,-0.01460371015355851,-0.02465847484915267
2015-05-21 13:10:33.328,6,1432177832.409872,-33.88897052969214,151.1932511163421,13.27283,0.53,306.9140625,8,5,-9999,1432177833.32539,17.95330810546875,-15.13891983032227,72.18142700195312,208.9328002929688,196.3822174072266,26,8169.338990666667,-0.0074920654296875,-0.025421142578125,-1.020095825195312,8169.314487666667,0.01807434168614977,-0.01339916239251567,-0.02466033906191573
2015-05-21 13:10:33.387,7,1432177832.409872,-33.88897052969214,151.1932511163421,13.27283,0.53,306.9140625,8,5,-9999,1432177833.364843,17.26181030273438,-15.00109481811523,72.18142700195312,208.9309844970703,196.3804016113281,26,8169.397219666667,-0.0069580078125,-0.026214599609375,-1.021011352539062,8169.380710666667,0.01807753747945787,-0.01219461463147283,-0.02466220327467878
2015-05-21 13:10:33.446,8,1432177833.435958,-33.88897052969214,151.1932511163421,13.47357,0,306.9140625,8,5,-9999,1432177833.403631,17.64212036132812,-14.96664810180664,72.214599609375,208.9289398193359,196.3783569335938,26,8169.455423666667,-0.0071563720703125,-0.0248565673828125,-1.019851684570312,8169.446948666668,0.01682345492213956,-0.01460930279184768,-0.02587154472568377
2015-05-21 13:10:33.504,9,1432177833.435958,-33.88897052969214,151.1932511163421,13.47357,0,306.9140625,8,5,-9999,1432177833.48287,17.78042602539062,-15.31119918823242,71.94927215576172,208.9245758056641,196.3739929199219,26,8169.513658666667,-0.007232666015625,-0.0264892578125,-1.019943237304688,8169.513187666667,0.01686446760292678,-0.0121868914643116,-0.02342516494833698
2015-05-21 13:10:33.561,10,1432177833.435958,-33.88897052969214,151.1932511163421,13.47357,0,306.9140625,8,5,-9999,1432177833.523424,17.53842163085938,-15.20783615112305,71.91610717773438,208.9220581054688,196.3714752197266,26,8169.571870666668,-0.0072479248046875,-0.0254364013671875,-1.020156860351562,8169.546298666667,0.01554753444388259,-0.01221911571350156,-0.02953845123061387
2015-05-21 13:10:33.620,11,1432177833.435958,-33.88897052969214,151.1932511163421,13.47357,0,306.9140625,8,5,-9999,1432177833.602427,17.81497192382812,-15.1389274597168,72.77842712402344,208.9168243408203,196.3662414550781,26,8169.630098666667,-0.0071868896484375,-0.0259857177734375,-1.018890380859375,8169.612542666667,0.01807301010560473,-0.007383081490026672,-0.02589471422716746
2015-05-21 13:10:33.684,12,1432177833.435958,-33.88897052969214,151.1932511163421,13.47357,0,306.9140625,8,5,-9999,1432177833.679923,18.09152221679688,-15.62129592895508,72.38043212890625,208.9112548828125,196.3606719970703,26,8169.688296666667,-0.0077362060546875,-0.0248260498046875,-1.018112182617188,8169.678788666667,0.01799098474403029,-0.01222790414509882,-0.03078747378186103
2015-05-21 13:10:33.736,13,1432177833.435958,-33.88897052969214,151.1932511163421,13.47357,0,306.9140625,8,5,-9999,1432177833.719164,17.88412475585938,-15.48347091674805,72.04877471923828,208.9084014892578,196.3578186035156,26,8169.746523666668,-0.0084381103515625,-0.024932861328125,-1.017837524414062,8169.745029666668,0.02174497661660599,-0.0146135638495918,-0.02591948162530519
2015-05-21 13:10:33.794,14,1432177833.435958,-33.88897052969214,151.1932511163421,13.47357,0,306.9140625,8,5,-9999,1432177833.758474,18.36813354492188,-15.41455459594727,71.98243713378906,208.9054718017578,196.3548889160156,26,8169.804751666667,-0.007171630859375,-0.0256500244140625,-1.01739501953125,8169.778140666667,0.01437361303537566,-0.01700960988233609,-0.02461879374891049
2015-05-21 13:10:33.853,15,1432177833.435958,-33.88897052969214,151.1932511163421,13.47357,0,306.9140625,8,5,-9999,1432177833.837205,17.81497192382812,-14.58762741088867,72.44676208496094,208.8992156982422,196.3486328125,26,8169.862977666668,-0.009490966796875,-0.024993896484375,-1.01678466796875,8169.844371666667,0.01933295161732122,-0.01579600737358699,-0.02221848665842208
2015-05-21 13:10:33.924,16,1432177833.435958,-33.88897052969214,151.1932511163421,13.47357,0,306.9140625,8,5,-9999,1432177833.916619,18.1260986328125,-15.03554916381836,72.214599609375,208.8923645019531,196.3417816162109,26,8169.921175666667,-0.0073699951171875,-0.0256500244140625,-1.016250610351562,8169.910617666667,0.01673690218671198,-0.01464259230547367,-0.03199681523286602
2015-05-21 13:10:33.969,17,1432177833.435958,-33.88897052969214,151.1932511163421,13.47357,0,306.9140625,8,5,-9999,1432177833.955431,17.91867065429688,-15.31119918823242,72.5462646484375,208.8887939453125,196.3382110595703,26,8169.979402666667,-0.0075531005859375,-0.0242767333984375,-1.0152587890625,8169.976840666667,0.01679202962127662,-0.01341807083625523,-0.02832351714131972
2015-05-21 13:10:34.028,18,1432177833.435958,-33.88897052969214,151.1932511163421,13.47357,0,306.9140625,8,5,-9999,1432177833.994813,17.64205932617188,-15.38010787963867,72.74526214599609,208.8852081298828,196.3346252441406,26,8170.037627666668,-0.0092315673828125,-0.02435302734375,-1.015975952148438,8170.009968666667,0.01563408717931017,-0.01218582619987557,-0.02341318072343162
2015-05-21 13:10:34.085,19,1432177833.435958,-33.88897052969214,151.1932511163421,13.47357,0,306.9140625,8,5,-9999,1432177834.073638,17.91867065429688,-15.10445785522461,72.5462646484375,208.8778686523438,196.3272857666016,26,8170.095857666667,-0.0075225830078125,-0.0242462158203125,-1.015945434570312,8170.076205666667,0.0118878184738957,-0.01340715187578591,-0.02705052614026185
2015-05-21 13:10:34.144,20,1432177833.435958,-33.88897052969214,151.1932511163421,13.47357,0,306.9140625,8,5,-9999,1432177834.112985,17.74581909179688,-15.27673721313477,72.31410217285156,208.8739929199219,196.3234100341797,26,8170.154081666667,-0.0079803466796875,-0.02630615234375,-1.01263427734375,8170.142429666667,0.01682345492213956,-0.01460930279184768,-0.02587154472568377
2015-05-21 13:10:34.202,21,1432177833.435958,-33.88897052969214,151.1932511163421,13.47357,0,306.9140625,8,5,-9999,1432177834.192538,17.67666625976562,-15.1389045715332,72.57942962646484,208.8660583496094,196.3154754638672,26,8170.212313666667,-0.0062408447265625,-0.025360107421875,-1.014907836914062,8170.208682666667,0.01807753747945787,-0.01219461463147283,-0.02466220327467878
2015-05-21 13:10:34.260,22,1432177833.435958,-33.88897052969214,151.1932511163421,13.47357,0,306.9140625,8,5,-9999,1432177834.232997,17.71127319335938,-15.03554153442383,72.34725952148438,208.8619384765625,196.3113555908203,26,8170.270536666667,-0.008087158203125,-0.0250091552734375,-1.014236450195312,8170.241796666667,0.01433126877404341,-0.01341594030738317,-0.02829954869150901
2015-05-21 13:10:34.324,23,1432177833.435958,-33.88897052969214,151.1932511163421,13.47357,0,306.9140625,8,5,-9999,1432177834.310296,17.33096313476562,-15.48345565795898,72.18143463134766,208.8534393310547,196.3028564453125,26,8170.328767666667,-0.007537841796875,-0.025299072265625,-1.01397705078125,8170.308017666667,0.01072348444531306,-0.01458400276149192,-0.02213646129684764
2015-05-21 13:10:34.377,24,1432177833.435958,-33.88897052969214,151.1932511163421,13.47357,0,306.9140625,8,5,-9999,1432177834.348418,17.53842163085938,-15.75910568237305,72.24776458740234,208.84912109375,196.2985382080078,26,8170.386995666667,-0.007568359375,-0.02581787109375,-1.013671875,8170.374271666667,0.02053829832669108,-0.0121967451603449,-0.0246861717244895
2015-05-21 13:10:34.435,25,1432177834.387401,-33.88897052969214,151.1932511163421,13.4776,0,306.9140625,8,5,-9999,1432177834.426602,17.84954833984375,-15.38010025024414,72.28092956542969,208.8401184082031,196.2895355224609,26,8170.445222666667,-0.0078125,-0.0255584716796875,-1.01336669921875,8170.440494666667,0.01318744108585437,-0.01338158552932115,-0.0221622939594214
2015-05-21 13:10:34.493,26,1432177834.387401,-33.88897052969214,151.1932511163421,13.4776,0,306.9140625,8,5,-9999,1432177834.466055,17.71127319335938,-15.10445785522461,72.28092956542969,208.8354797363281,196.2848968505859,26,8170.503450666667,-0.0080413818359375,-0.0245819091796875,-1.014724731445312,8170.473636666668,0.02056333204093783,-0.01579707263802302,-0.02223047088332743
2015-05-21 13:10:34.563,27,1432177834.387401,-33.88897052969214,151.1932511163421,13.4776,0,306.9140625,8,5,-9999,1432177834.544818,18.05697631835938,-15.51792526245117,72.5462646484375,208.8258056640625,196.2752227783203,26,8170.561678666667,-0.00628662109375,-0.026214599609375,-1.013870239257812,8170.539859666667,0.01929833052315019,-0.01580932317903738,-0.02466859486129497
2015-05-21 13:10:34.609,28,1432177834.387401,-33.88897052969214,151.1932511163421,13.4776,0,306.9140625,8,5,-9999,1432177834.584783,17.57293701171875,-15.17337417602539,72.34725952148438,208.8207855224609,196.2702026367188,26,8170.619905666667,-0.0074920654296875,-0.0262908935546875,-1.015823364257812,8170.606113666667,0.01437228145483063,-0.01099352897984709,-0.02585316891416222
2015-05-21 13:10:34.668,29,1432177834.387401,-33.88897052969214,151.1932511163421,13.4776,0,306.9140625,8,5,-9999,1432177834.662945,17.26177978515625,-15.0011100769043,72.18142700195312,208.8107147216797,196.2601318359375,26,8170.678122666667,-0.0078277587890625,-0.024749755859375,-1.0147705078125,8170.672336666667,0.01808073327276596,-0.01099006687042999,-0.02466406748744184
2015-05-21 13:10:34.726,30,1432177834.387401,-33.88897052969214,151.1932511163421,13.4776,0,306.9140625,8,5,-9999,1432177834.70238,17.57293701171875,-14.96665573120117,72.41359710693359,208.8056335449219,196.2550506591797,26,8170.736361666667,-0.0082550048828125,-0.0247344970703125,-1.0142822265625,8170.705447666667,0.01685807601631058,-0.01459598698639728,-0.02342143652281087
2015-05-21 13:10:34.784,31,1432177834.387401,-33.88897052969214,151.1932511163421,13.4776,0,306.9140625,8,5,-9999,1432177834.781026,17.74575805664062,-15.34566116333008,72.71209716796875,208.7950897216797,196.2445068359375,26,8170.794587666667,-0.0062713623046875,-0.0259857177734375,-1.014633178710938,8170.771701666667,0.01318744108585437,-0.01338158552932115,-0.0221622939594214
2015-05-21 13:10:34.842,32,1432177834.387401,-33.88897052969214,151.1932511163421,13.4776,0,306.9140625,8,5,-9999,1432177834.820445,17.4000244140625,-15.07001876831055,72.38043212890625,208.7895660400391,196.2389831542969,26,8170.852784666668,-0.0088348388671875,-0.0258941650390625,-1.011978149414062,8170.837924666667,0.01802241004489323,-0.01341913610069127,-0.02833550136622508
2015-05-21 13:10:34.901,33,1432177834.387401,-33.88897052969214,151.1932511163421,13.4776,0,306.9140625,8,5,-9999,1432177834.899207,17.365478515625,-15.58686447143555,72.41359710693359,208.7785186767578,196.2279357910156,26,8170.911033666667,-0.007537841796875,-0.0264434814453125,-1.013473510742188,8170.904178666668,0.01559627029183104,-0.01340368976636881,-0.02586142471354147
2015-05-21 13:10:34.963,34,1432177834.387401,-33.88897052969214,151.1932511163421,13.4776,0,306.9140625,8,5,-9999,1432177834.938535,17.88406372070312,-15.13895034790039,72.31410217285156,208.7728881835938,196.2223052978516,26,8170.969239666667,-0.00750732421875,-0.0265045166015625,-1.014739990234375,8170.937289666667,0.0205319067400749,-0.01460584068243057,-0.02468244329896339
2015-05-21 13:10:35.017,35,1432177834.387401,-33.88897052969214,151.1932511163421,13.4776,0,306.9140625,8,5,-9999,1432177834.978581,17.91860961914062,-14.96667098999023,72.61259460449219,208.7672271728516,196.2166442871094,26,8171.027468666667,-0.00634765625,-0.025848388671875,-1.015518188476562,8171.003513666667,0.01561038504560846,-0.01460157962468645,-0.02463450639934196
2015-05-21 13:10:35.075,36,1432177834.387401,-33.88897052969214,151.1932511163421,13.4776,0,306.9140625,8,5,-9999,1432177835.056585,17.7457275390625,-15.27676010131836,72.71208190917969,208.7556762695312,196.2050933837891,26,8171.085694666667,-0.00811767578125,-0.0250244140625,-1.011428833007812,8171.069766666667,0.02054921728716041,-0.01459918277970538,-0.02345738919752694
2015-05-21 13:10:35.134,37,1432177834.387401,-33.88897052969214,151.1932511163421,13.4776,0,306.9140625,8,5,-9999,1432177835.096064,17.95315551757812,-15.20784378051758,72.71208190917969,208.7499389648438,196.1993560791016,26,8171.143923666667,-0.0065765380859375,-0.0271453857421875,-1.013824462890625,8171.135989666667,0.01438639620860804,-0.01219141883816474,-0.02462625059996272
2015-05-21 13:10:35.203,38,1432177834.387401,-33.88897052969214,151.1932511163421,13.4776,0,306.9140625,8,5,-9999,1432177835.175193,17.9185791015625,-15.31120681762695,72.81158447265625,208.7381134033203,196.1875305175781,26,8171.202151666667,-0.0069122314453125,-0.024749755859375,-1.014205932617188,8171.169101666667,0.01194614170176844,-0.01097808264552464,-0.02337909226147861
2015-05-21 13:10:35.250,39,1432177834.387401,-33.88897052969214,151.1932511163421,13.4776,0,306.9140625,8,5,-9999,1432177835.214447,17.7457275390625,-15.27675247192383,72.44674682617188,208.7320709228516,196.1814880371094,26,8171.260377666667,-0.00701904296875,-0.0247344970703125,-1.011978149414062,8171.235350666667,0.01436588986821443,-0.01340262450193277,-0.02584944048863611
2015-05-21 13:10:35.308,40,1432177834.387401,-33.88897052969214,151.1932511163421,13.4776,0,306.9140625,8,5,-9999,1432177835.291265,18.43719482421875,-14.93220901489258,72.71208190917969,208.7196807861328,196.1690979003906,26,8171.318606666667,-0.0084228515625,-0.025726318359375,-1.01336669921875,8171.301578666667,0.01809484802654338,-0.01218795672874763,-0.02343714917324233
2015-05-21 13:10:35.366,41,1432177834.387401,-33.88897052969214,151.1932511163421,13.4776,0,306.9140625,8,5,-9999,1432177835.33068,18.5408935546875,-15.6557731628418,72.81158447265625,208.7133941650391,196.1628112792969,26,8171.376832666667,-0.00567626953125,-0.0250091552734375,-1.013351440429688,8171.367834666667,0.01438000462199185,-0.01460051436025041,-0.0246225221744366
2015-05-21 13:10:35.425,42,1432177835.380088,-33.88897052969214,151.1932511163421,13.48126,0,306.9140625,8,5,-9999,1432177835.409354,17.50372314453125,-15.51794815063477,72.34725952148438,208.7006988525391,196.1501159667969,26,8171.435054666667,-0.006195068359375,-0.0277862548828125,-1.013031005859375,8171.434055666668,0.01436908566152253,-0.01219807674088993,-0.02585130470139917
2015-05-21 13:10:35.483,43,1432177835.380088,-33.88897052969214,151.1932511163421,13.48126,0,306.9140625,8,5,-9999,1432177835.448751,17.33084106445312,-15.34566879272461,72.11509704589844,208.6943817138672,196.143798828125,26,8171.493287666667,-0.0078277587890625,-0.02655029296875,-1.012786865234375,8171.467166666667,0.01928741156268087,-0.0134068855596769,-0.02589737738825754
2015-05-21 13:10:35.541,44,1432177835.380088,-33.88897052969214,151.1932511163421,13.48126,0,306.9140625,8,5,-9999,1432177835.527531,18.0914306640625,-15.41458511352539,72.57942199707031,208.6815948486328,196.1310119628906,26,8171.551516666667,-0.007965087890625,-0.026947021484375,-1.012222290039062,8171.533429666667,0.01806342272568045,-0.01099672477315519,-0.02588912158887829
2015-05-21 13:10:35.606,45,1432177835.380088,-33.88897052969214,151.1932511163421,13.48126,0,306.9140625,8,5,-9999,1432177835.566329,18.0914306640625,-15.82804489135742,72.3140869140625,208.6751861572266,196.1246032714844,26,8171.609742666667,-0.00750732421875,-0.025665283203125,-1.011611938476562,8171.599643666667,0.01439731516907737,-0.01459385645752522,-0.02339746807300016
2015-05-21 13:10:35.658,46,1432177835.380088,-33.88897052969214,151.1932511163421,13.48126,0,306.9140625,8,5,-9999,1432177835.645642,17.39999389648438,-15.34567642211914,72.44674682617188,208.6620483398438,196.1114654541016,26,8171.667970666667,-0.007476806640625,-0.024444580078125,-1.01275634765625,8171.665897666667,0.01439411937576927,-0.01579840421856806,-0.0233956038602371
2015-05-21 13:10:35.716,47,1432177835.380088,-33.88897052969214,151.1932511163421,13.48126,0,306.9140625,8,5,-9999,1432177835.685032,17.7802734375,-15.44903945922852,72.14825439453125,208.6553955078125,196.1048126220703,26,8171.726197666667,-0.0076446533203125,-0.02667236328125,-1.01507568359375,8171.699008666667,0.01187050792681019,-0.01341380977851111,-0.02827558024169829
2015-05-21 13:10:35.774,48,1432177835.380088,-33.88897052969214,151.1932511163421,13.48126,0,306.9140625,8,5,-9999,1432177835.765891,17.71115112304688,-15.38010787963867,72.47991943359375,208.6420288085938,196.0914459228516,26,8171.784425666667,-0.0057830810546875,-0.024200439453125,-1.01043701171875,8171.765226666667,0.01560718925230037,-0.01580612738572928,-0.0246326421865789
2015-05-21 13:10:35.843,49,1432177835.380088,-33.88897052969214,151.1932511163421,13.48126,0,306.9140625,8,5,-9999,1432177835.80347,17.74569702148438,-15.4145622253418,72.77841186523438,208.6353607177734,196.0847778320312,26,8171.842643666667,-0.00677490234375,-0.0270233154296875,-1.013290405273438,8171.831485666668,0.02052098777960557,-0.01220340306307009,-0.02591122582592595
2015-05-21 13:10:35.890,50,1432177835.380088,-33.88897052969214,151.1932511163421,13.48126,0,306.9140625,8,5,-9999,1432177835.881684,18.19512939453125,-15.65576553344727,72.54624938964844,208.621826171875,196.0712432861328,26,8171.900846666667,-0.0084075927734375,-0.0254058837890625,-1.009521484375,8171.897735666667,0.01556937236482124,-0.01702399095222252,-0.02708088617668875
2015-05-21 13:10:35.949,51,1432177835.380088,-33.88897052969214,151.1932511163421,13.48126,0,306.9140625,8,5,-9999,1432177835.921293,17.53823852539062,-15.48349380493164,72.71208190917969,208.6150207519531,196.0644378662109,26,8171.959063666667,-0.00689697265625,-0.0258636474609375,-1.011138916015625,8171.930830666667,0.02046266455173283,-0.01463247229333137,-0.02958265970470919
2015-05-21 13:10:36.007,52,1432177835.380088,-33.88897052969214,151.1932511163421,13.48126,0,306.9140625,8,5,-9999,1432177836.000153,17.9185791015625,-16.27595901489258,72.41358947753906,208.6013336181641,196.0507507324219,26,8172.017305666667,-0.007110595703125,-0.026611328125,-1.010482788085938,8171.997073666667,0.01679842120789281,-0.01100897531416956,-0.02832724556684583
2015-05-21 13:10:36.067,53,1432177835.380088,-33.88897052969214,151.1932511163421,13.48126,0,306.9140625,8,5,-9999,1432177836.039531,18.05685424804688,-15.72468185424805,72.214599609375,208.594482421875,196.0438995361328,26,8172.075505666668,-0.007415771484375,-0.0255279541015625,-1.009841918945312,8172.063327666667,0.01558215553805362,-0.01220579990805117,-0.02708834302774097
2015-05-21 13:10:36.123,54,1432177835.380088,-33.88897052969214,151.1932511163421,13.48126,0,306.9140625,8,5,-9999,1432177836.1183,18.36801147460938,-15.69021987915039,72.44674682617188,208.5805816650391,196.0299987792969,26,8172.133729666667,-0.007293701171875,-0.0247039794921875,-1.011734008789062,8172.129567666667,0.01063693170988549,-0.01461729227511792,-0.02826173180402988
2015-05-21 13:10:36.182,55,1432177835.380088,-33.88897052969214,151.1932511163421,13.48126,0,306.9140625,8,5,-9999,1432177836.157734,18.16058349609375,-15.62131118774414,72.57942199707031,208.5736236572266,196.0230407714844,26,8172.191957666667,-0.007781982421875,-0.026763916015625,-1.01318359375,8172.162662666668,0.01434857932112892,-0.01340928240465797,-0.02707449459007256
2015-05-21 13:10:36.243,56,1432177835.380088,-33.88897052969214,151.1932511163421,13.48126,0,306.9140625,8,5,-9999,1432177836.236505,18.0914306640625,-15.62131881713867,72.44674682617188,208.5598297119141,196.0092468261719,26,8172.250184666667,-0.0084228515625,-0.023193359375,-1.01446533203125,8172.228894666667,0.0193220326568519,-0.01339356975422651,-0.02344726918538464
2015-05-21 13:10:36.298,57,1432177835.380088,-33.88897052969214,151.1932511163421,13.48126,0,306.9140625,8,5,-9999,1432177836.274257,17.84942626953125,-16.00032424926758,73.01058197021484,208.5528869628906,196.0023040771484,26,8172.308412666667,-0.0083770751953125,-0.026336669921875,-1.012710571289062,8172.295139666667,0.01318744108585437,-0.01338158552932115,-0.0221622939594214
2015-05-21 13:10:36.356,58,1432177835.380088,-33.88897052969214,151.1932511163421,13.48126,0,306.9140625,8,5,-9999,1432177836.35275,17.71115112304688,-15.58686447143555,72.87791442871094,208.5389862060547,195.9884033203125,26,8172.366640666667,-0.008026123046875,-0.02545166015625,-1.012252807617188,8172.361392666668,0.01438320041529995,-0.01339596659920758,-0.02462438638719966
2015-05-21 13:10:36.414,59,1432177836.394589,-33.88897052969214,151.1932511163421,13.48938,0,306.9140625,8,5,-9999,1432177836.39199,17.60739135742188,-15.34567642211914,72.645751953125,208.531982421875,195.9813995361328,26,8172.424867666668,-0.0069732666015625,-0.0262451171875,-1.010818481445312,8172.394504666667,0.01565139772639568,-0.01217916829715037,-0.02218812662199517
2015-05-21 13:10:36.481,60,1432177836.394589,-33.88897052969214,151.1932511163421,13.48938,0,306.9140625,8,5,-9999,1432177836.471106,18.05682373046875,-14.75992965698242,72.47993469238281,208.517822265625,195.9672393798828,26,8172.483092666667,-0.00762939453125,-0.0250701904296875,-1.012191772460938,8172.460727666667,0.01315281999168334,-0.01339490133477154,-0.0246124021622943
2015-05-21 13:10:36.531,61,1432177836.394589,-33.88897052969214,151.1932511163421,13.48938,0,306.9140625,8,5,-9999,1432177836.510188,17.88397216796875,-14.7254753112793,73.17641448974609,208.5105743408203,195.9599914550781,26,8172.541326666667,-0.0072174072265625,-0.0248565673828125,-1.011856079101562,8172.526981666667,0.01318104949923818,-0.01579068105140683,-0.02215856553389529
2015-05-21 13:10:36.589,62,1432177836.394589,-33.88897052969214,151.1932511163421,13.48938,0,306.9140625,8,5,-9999,1432177836.549874,17.9876708984375,-14.96665573120117,73.27590942382812,208.5032348632812,195.9526519775391,26,8172.599549666667,-0.0075836181640625,-0.0261688232421875,-1.01129150390625,8172.593204666668,0.01926690522228726,-0.01461809122344494,-0.02712056727693093
2015-05-21 13:10:36.648,63,1432177836.394589,-33.88897052969214,151.1932511163421,13.48938,0,306.9140625,8,5,-9999,1432177836.628554,17.50363159179688,-15.44903182983398,72.87791442871094,208.4887084960938,195.9381256103516,26,8172.657777666667,-0.007843017578125,-0.0255889892578125,-1.009536743164062,8172.626346666667,0.01190512902098122,-0.01340049397306071,-0.0258254720388254
2015-05-21 13:10:36.708,64,1432177836.394589,-33.88897052969214,151.1932511163421,13.48938,0,306.9140625,8,5,-9999,1432177836.667793,17.46908569335938,-15.1389274597168,73.11007690429688,208.4814910888672,195.930908203125,26,8172.715980666667,-0.0076751708984375,-0.02459716796875,-1.0115966796875,8172.692569666667,0.01196478382939899,-0.01698750564528844,-0.02091966299479043
2015-05-21 13:10:36.764,65,1432177836.394589,-33.88897052969214,151.1932511163421,13.48938,0,306.9140625,8,5,-9999,1432177836.746673,17.8839111328125,-14.79438400268555,72.44676208496094,208.4668731689453,195.9162902832031,26,8172.774233666667,-0.0072021484375,-0.02490234375,-1.012054443359375,8172.758818666667,0.01557576395143743,-0.01461489543013684,-0.02708461460221486
2015-05-21 13:10:36.822,66,1432177836.394589,-33.88897052969214,151.1932511163421,13.48938,0,306.9140625,8,5,-9999,1432177836.786041,18.26422119140625,-14.62211227416992,71.94926452636719,208.4595336914062,195.9089508056641,26,8172.832461666667,-0.007232666015625,-0.02679443359375,-1.01348876953125,8172.825046666667,0.01685807601631058,-0.01459598698639728,-0.02342143652281087
2015-05-21 13:10:36.883,67,1432177836.394589,-33.88897052969214,151.1932511163421,13.48938,0,306.9140625,8,5,-9999,1432177836.864804,17.95306396484375,-15.00111770629883,72.645751953125,208.4449005126953,195.8943176269531,26,8172.890688666667,-0.007476806640625,-0.0269775390625,-1.011581420898438,8172.858157666667,0.01558215553805362,-0.01220579990805117,-0.02708834302774097
2015-05-21 13:10:36.938,68,1432177836.394589,-33.88897052969214,151.1932511163421,13.48938,0,306.9140625,8,5,-9999,1432177836.904167,17.74560546875,-15.34567642211914,72.44674682617188,208.4375762939453,195.8869934082031,26,8172.948916666667,-0.0066375732421875,-0.027435302734375,-1.013534545898438,8172.924411666667,0.02051140039968128,-0.01581704634619861,-0.02590563318763678
2015-05-21 13:10:36.997,69,1432177836.394589,-33.88897052969214,151.1932511163421,13.48938,0,306.9140625,8,5,-9999,1432177836.982986,17.468994140625,-15.13893508911133,72.24775695800781,208.4230804443359,195.8724975585938,26,8173.007142666667,-0.008544921875,-0.02703857421875,-1.011566162109375,8172.990634666668,0.01809165223323529,-0.01339250448979047,-0.02343528496047928
2015-05-21 13:10:37.055,70,1432177836.394589,-33.88897052969214,151.1932511163421,13.48938,0,306.9140625,8,5,-9999,1432177837.02259,17.84930419921875,-15.10447311401367,72.61257934570312,208.4157104492188,195.8651275634766,26,8173.065371666667,-0.0075225830078125,-0.0254669189453125,-1.011032104492188,8173.023765666667,0.02295485069982899,-0.01582583477779587,-0.02715465573888394
2015-05-21 13:10:37.122,71,1432177836.394589,-33.88897052969214,151.1932511163421,13.48938,0,306.9140625,8,5,-9999,1432177837.101803,17.7801513671875,-15.03557205200195,72.21459197998047,208.401123046875,195.8505401611328,26,8173.123602666667,-0.006195068359375,-0.02630615234375,-1.012557983398438,8173.123111666667,0.02055241308046851,-0.01339463501866254,-0.02345925341028999
2015-05-21 13:10:37.171,72,1432177836.394589,-33.88897052969214,151.1932511163421,13.48938,0,306.9140625,8,5,-9999,1432177837.140464,17.84930419921875,-15.58686447143555,72.21459197998047,208.3938446044922,195.84326171875,26,8173.181825666667,-0.0065155029296875,-0.0257720947265625,-1.014633178710938,8173.156223666667,0.01684076546922507,-0.01460264488912248,-0.02464649062424732
2015-05-21 13:10:37.230,73,1432177836.394589,-33.88897052969214,151.1932511163421,13.48938,0,306.9140625,8,5,-9999,1432177837.220219,17.43441772460938,-16.0692253112793,71.94926452636719,208.3790435791016,195.8284606933594,26,8173.240053666667,-0.006927490234375,-0.02362060546875,-1.011444091796875,8173.222475666667,0.01924639888189365,-0.01582929688721298,-0.02834375716560432
2015-05-21 13:10:37.288,74,1432177836.394589,-33.88897052969214,151.1932511163421,13.48938,0,306.9140625,8,5,-9999,1432177837.257973,17.08871459960938,-15.72468185424805,72.34725189208984,208.3716278076172,195.821044921875,26,8173.298281666667,-0.0074310302734375,-0.026031494140625,-1.011749267578125,8173.255588666667,0.0242089332571473,-0.01341114661742103,-0.02594531428787896
2015-05-21 13:10:37.348,75,1432177836.394589,-33.88897052969214,151.1932511163421,13.48938,0,306.9140625,8,5,-9999,1432177837.336696,18.0567626953125,-15.6557731628418,72.47991943359375,208.3569030761719,195.8063201904297,26,8173.356507666667,-0.0085906982421875,-0.026275634765625,-1.013290405273438,8173.354953666667,0.01070936969153564,-0.01338611290317428,-0.02336337961104714
2015-05-21 13:10:37.404,76,1432177837.386831,-33.88897052969214,151.1932511163421,13.50568,0,306.9140625,12,5,-9999,1432177837.376122,17.74557495117188,-15.69022750854492,72.3140869140625,208.3495025634766,195.7989196777344,26,8173.414745125,-0.0066986083984375,-0.026885986328125,-1.012664794921875,8173.388055666667,0.01440051096238546,-0.01338930869648238,-0.02339933228576321
2015-05-21 13:10:37.463,77,1432177837.386831,-33.88897052969214,151.1932511163421,13.50568,0,306.9140625,12,5,-9999,1432177837.455087,17.81478881835938,-15.20785903930664,72.51308441162109,208.3346862792969,195.7841033935547,26,8173.472971125,-0.007171630859375,-0.02618408203125,-1.01190185546875,8173.454298125001,0.01679975278843785,-0.01702505621665855,-0.02709287040159411
2015-05-21 13:10:37.524,78,1432177837.386831,-33.88897052969214,151.1932511163421,13.50568,0,306.9140625,12,5,-9999,1432177837.494218,18.12594604492188,-15.10448837280273,72.08192443847656,208.327392578125,195.7768096923828,26,8173.531200125,-0.007720947265625,-0.0259552001953125,-1.0113525390625,8173.520550125,0.02299586338061621,-0.0134034234502598,-0.02470827596153716
2015-05-21 13:10:37.579,79,1432177837.386831,-33.88897052969214,151.1932511163421,13.50568,0,306.9140625,12,5,-9999,1432177837.57305,18.12594604492188,-15.6557731628418,72.34725189208984,208.3129425048828,195.7623596191406,26,8173.589427125001,-0.0079345703125,-0.025665283203125,-1.013015747070312,8173.586774125,0.01937076850480035,-0.01457814380709375,-0.01977024266831223
2015-05-21 13:10:37.638,80,1432177837.386831,-33.88897052969214,151.1932511163421,13.50568,0,306.9140625,12,5,-9999,1432177837.612469,18.40252685546875,-15.86249923706055,72.28091430664062,208.3057861328125,195.7552032470703,26,8173.647644125001,-0.0069122314453125,-0.0263824462890625,-1.014907836914062,8173.619903125001,0.01559946608513914,-0.01219914200532597,-0.02586328892630452
2015-05-21 13:10:37.695,81,1432177837.386831,-33.88897052969214,151.1932511163421,13.50568,0,306.9140625,12,5,-9999,1432177837.691182,17.78024291992188,-15.31119918823242,72.67891693115234,208.2913970947266,195.7408142089844,26,8173.705882125,-0.0080108642578125,-0.02587890625,-1.015731811523438,8173.686139125,0.01684076546922507,-0.01460264488912248,-0.02464649062424732
2015-05-21 13:10:37.761,82,1432177837.386831,-33.88897052969214,151.1932511163421,13.50568,0,306.9140625,12,5,-9999,1432177837.731125,18.43710327148438,-15.75912094116211,72.84474945068359,208.2841491699219,195.7335662841797,26,8173.764094125,-0.0071563720703125,-0.027008056640625,-1.01617431640625,8173.752362125,0.01928741156268087,-0.0134068855596769,-0.02589737738825754
2015-05-21 13:10:37.812,83,1432177837.386831,-33.88897052969214,151.1932511163421,13.50568,0,306.9140625,12,5,-9999,1432177837.809314,17.74569702148438,-14.93220901489258,72.51308441162109,208.2696228027344,195.7190399169922,26,8173.822337125001,-0.0069122314453125,-0.0259552001953125,-1.015640258789062,8173.818616125001,0.02048636668543454,-0.01221671886852049,-0.02836133402879885
2015-05-21 13:10:37.871,84,1432177837.386831,-33.88897052969214,151.1932511163421,13.50568,0,306.9140625,12,5,-9999,1432177837.848723,17.57284545898438,-15.6557731628418,72.94424438476562,208.2623291015625,195.7117462158203,26,8173.880579125001,-0.0076751708984375,-0.025665283203125,-1.015029907226562,8173.851710125001,0.01685807601631058,-0.01459598698639728,-0.02342143652281087
2015-05-21 13:10:37.929,85,1432177837.386831,-33.88897052969214,151.1932511163421,13.50568,0,306.9140625,12,5,-9999,1432177837.927428,17.74569702148438,-15.89695358276367,72.11510467529297,208.2478332519531,195.6972503662109,26,8173.938810125001,-0.0069427490234375,-0.025726318359375,-1.01287841796875,8173.917981125001,0.01435497090774511,-0.01100018688257229,-0.02707822301559867
2015-05-21 13:10:37.988,86,1432177837.386831,-33.88897052969214,151.1932511163421,13.50568,0,306.9140625,12,5,-9999,1432177837.96763,17.7457275390625,-15.89695358276367,72.04876708984375,208.2405242919922,195.68994140625,26,8173.997019125,-0.006744384765625,-0.0260009765625,-1.014556884765625,8173.984204125,0.02180969143109491,-0.009775399097244852,-0.02225177617204807
2015-05-21 13:10:38.045,87,1432177837.386831,-33.88897052969214,151.1932511163421,13.50568,0,306.9140625,12,5,-9999,1432177838.006809,17.95321655273438,-15.55240249633789,72.38043212890625,208.2332305908203,195.6826477050781,26,8174.055247125,-0.0076446533203125,-0.0257415771484375,-1.014739990234375,8174.050427125,0.01432807298073531,-0.01462048806842601,-0.02829768447874595
2015-05-21 13:10:38.103,88,1432177837.386831,-33.88897052969214,151.1932511163421,13.50568,0,306.9140625,12,5,-9999,1432177838.085325,17.36544799804688,-15.72466659545898,72.14826965332031,208.2185668945312,195.6679840087891,26,8174.113475125,-0.008453369140625,-0.0250244140625,-1.01519775390625,8174.083569125,0.01930791790307448,-0.01219567989590886,-0.02467418749958414
2015-05-21 13:10:38.164,89,1432177837.386831,-33.88897052969214,151.1932511163421,13.50568,0,306.9140625,12,5,-9999,1432177838.12432,17.05429077148438,-15.82802963256836,72.18142700195312,208.2112274169922,195.66064453125,26,8174.171733125,-0.0078125,-0.02685546875,-1.01373291015625,8174.149792125,0.01318104949923818,-0.01579068105140683,-0.02215856553389529
2015-05-21 13:10:38.219,90,1432177837.386831,-33.88897052969214,151.1932511163421,13.50568,0,306.9140625,12,5,-9999,1432177838.203113,17.74575805664062,-15.41458511352539,73.04376220703125,208.1967163085938,195.6461334228516,26,8174.229960125001,-0.005950927734375,-0.0251312255859375,-1.013916015625,8174.216046125001,0.01809165223323529,-0.01339250448979047,-0.02343528496047928
2015-05-21 13:10:38.278,91,1432177837.386831,-33.88897052969214,151.1932511163421,13.50568,0,306.9140625,12,5,-9999,1432177838.242312,17.26174926757812,-15.48349380493164,72.77842712402344,208.1893615722656,195.6387786865234,26,8174.288182125,-0.0080718994140625,-0.0255279541015625,-1.01611328125,8174.282269125,0.01315281999168334,-0.01339490133477154,-0.0246124021622943
2015-05-21 13:10:38.336,92,1432177837.386831,-33.88897052969214,151.1932511163421,13.50568,0,306.9140625,12,5,-9999,1432177838.319365,17.4000244140625,-15.1389274597168,72.71209716796875,208.1746673583984,195.6240844726562,26,8174.346415125001,-0.00946044921875,-0.0262908935546875,-1.014053344726562,8174.315381125,0.01191285218814245,-0.01700747935346403,-0.02459482529909978
2015-05-21 13:10:38.406,93,1432177837.386831,-33.88897052969214,151.1932511163421,13.50568,0,306.9140625,12,5,-9999,1432177838.399542,17.95318603515625,-14.93220138549805,72.24776458740234,208.1598052978516,195.6092224121094,26,8174.404644125,-0.0080413818359375,-0.0269775390625,-1.012924194335938,8174.381630125001,0.02045627296511664,-0.01704156781541705,-0.02957893127918308
2015-05-21 13:10:38.452,94,1432177838.407478,-33.88897052969214,151.1932511163421,13.51575,0,306.9140625,8,5,-9999,1432177838.437597,17.64202880859375,-15.17338180541992,72.34725952148438,208.1523742675781,195.6017913818359,26,8174.462870125,-0.0088958740234375,-0.0262603759765625,-1.015213012695312,8174.447858125,0.02545342843454133,-0.0146101017401747,-0.02473038019858481
2015-05-21 13:10:38.510,95,1432177838.407478,-33.88897052969214,151.1932511163421,13.51575,0,306.9140625,8,5,-9999,1432177838.476985,17.5728759765625,-15.93140029907227,72.87792205810547,208.1450347900391,195.5944519042969,26,8174.521098125,-0.00616455078125,-0.0272064208984375,-1.017990112304688,8174.514111125,0.01684396126253317,-0.01339809712807964,-0.02464835483701037
2015-05-21 13:10:38.569,96,1432177838.407478,-33.88897052969214,151.1932511163421,13.51575,0,306.9140625,8,5,-9999,1432177838.555585,17.7457275390625,-15.62130355834961,72.11510467529297,208.1304168701172,195.579833984375,26,8174.579326125,-0.006988525390625,-0.0276336669921875,-1.014556884765625,8174.547204125,0.01808845643992719,-0.01459705225083331,-0.02343342074771623
2015-05-21 13:10:38.643,97,1432177838.407478,-33.88897052969214,151.1932511163421,13.51575,0,306.9140625,8,5,-9999,1432177838.635054,17.95315551757812,-15.27675247192383,72.11509704589844,208.1157379150391,195.5651550292969,26,8174.637554125001,-0.007476806640625,-0.0243682861328125,-1.016098022460938,8174.613446125,0.01067155280405651,-0.01460397646966752,-0.02581162360115698
2015-05-21 13:10:38.685,98,1432177838.407478,-33.88897052969214,151.1932511163421,13.51575,0,306.9140625,8,5,-9999,1432177838.673772,18.16058349609375,-15.34566116333008,72.44676208496094,208.1083679199219,195.5577850341797,26,8174.695781125,-0.0079803466796875,-0.024322509765625,-1.01751708984375,8174.679695125001,0.01801601845827704,-0.01582823162277694,-0.02833177294069897
2015-05-21 13:10:38.744,99,1432177838.407478,-33.88897052969214,151.1932511163421,13.51575,0,306.9140625,8,5,-9999,1432177838.713523,17.953125,-15.48347854614258,72.84475708007812,208.1009826660156,195.5503997802734,26,8174.754027125001,-0.0079345703125,-0.0255279541015625,-1.018798828125,8174.745938125,0.01564820193308759,-0.01338371605819321,-0.02218626240923212
2015-05-21 13:10:38.803,100,1432177838.407478,-33.88897052969214,151.1932511163421,13.51575,0,306.9140625,8,5,-9999,1432177838.792443,16.812255859375,-15.72466659545898,73.14326477050781,208.0863494873047,195.5357666015625,26,8174.812262125,-0.007965087890625,-0.027008056640625,-1.018142700195312,8174.812176125,0.01803972059197874,-0.01341247819796607,-0.02711044726478863
2015-05-21 13:10:38.860,101,1432177838.407478,-33.88897052969214,151.1932511163421,13.51575,0,306.9140625,8,5,-9999,1432177838.831421,16.77767944335938,-15.4145622253418,72.84475708007812,208.0791778564453,195.5285949707031,26,8174.870493125,-0.00604248046875,-0.0266571044921875,-1.017791748046875,8174.845288125,0.01314962419837525,-0.01459944909581438,-0.02461053794953125
2015-05-21 13:10:38.918,102,1432177838.407478,-33.88897052969214,151.1932511163421,13.51575,0,306.9140625,8,5,-9999,1432177838.910168,17.46914672851562,-15.1389274597168,72.31410980224609,208.0647888183594,195.5142059326172,26,8174.928715125,-0.007781982421875,-0.0262451171875,-1.018051147460938,8174.911510125001,0.02175775978983837,-0.009795372805420446,-0.02592693847635742
2015-05-21 13:10:38.977,103,1432177838.407478,-33.88897052969214,151.1932511163421,13.51575,0,306.9140625,8,5,-9999,1432177838.949536,18.02230834960938,-15.2767448425293,72.31410980224609,208.0576019287109,195.5070190429688,26,8174.986950125,-0.007904052734375,-0.024810791015625,-1.016250610351562,8174.977770125,0.01558535133136172,-0.01100125214700833,-0.02709020724050403
2015-05-21 13:10:39.042,104,1432177838.407478,-33.88897052969214,151.1932511163421,13.51575,0,306.9140625,8,5,-9999,1432177839.028345,17.43453979492188,-15.24228286743164,72.08193969726562,208.0430755615234,195.4924926757812,26,8175.045177125001,-0.0069580078125,-0.0250091552734375,-1.01654052734375,8175.043988125,0.01562769559269398,-0.01459492172196125,-0.02340945229790551
2015-05-21 13:10:39.093,105,1432177838.407478,-33.88897052969214,151.1932511163421,13.51575,0,306.9140625,8,5,-9999,1432177839.067629,17.98773193359375,-15.51792526245117,72.54627990722656,208.0357666015625,195.4851837158203,26,8175.103405125001,-0.006927490234375,-0.02752685546875,-1.016326904296875,8175.077130125001,0.011864116340194,-0.01582290530059679,-0.02827185181617219
2015-05-21 13:10:39.151,106,1432177838.407478,-33.88897052969214,151.1932511163421,13.51575,0,306.9140625,8,5,-9999,1432177839.146281,18.1259765625,-15.72465896606445,72.41360473632812,208.0211791992188,195.4705963134766,26,8175.161662125,-0.0088043212890625,-0.0249176025390625,-1.017837524414062,8175.143353125,0.01685354864245745,-0.009784453844951121,-0.02465394747529954
2015-05-21 13:10:39.209,107,1432177838.407478,-33.88897052969214,151.1932511163421,13.51575,0,306.9140625,8,5,-9999,1432177839.185623,18.05685424804688,-15.86247634887695,72.28094482421875,208.0139312744141,195.4633483886719,26,8175.219889125001,-0.0078125,-0.02606201171875,-1.016342163085938,8175.209576125,0.01923867571473242,-0.01222231150680966,-0.02957440390532994
2015-05-21 13:10:39.285,108,1432177838.407478,-33.88897052969214,151.1932511163421,13.51575,0,306.9140625,8,5,-9999,1432177839.263011,17.78030395507812,-15.31119155883789,72.08195495605469,207.9995269775391,195.4489440917969,26,8175.278118125,-0.00726318359375,-0.02520751953125,-1.01678466796875,8175.242718125,0.01438320041529995,-0.01339596659920758,-0.02462438638719966
2015-05-21 13:10:39.326,109,1432177838.407478,-33.88897052969214,151.1932511163421,13.51575,0,306.9140625,8,5,-9999,1432177839.304259,17.84945678710938,-14.69099044799805,71.61763000488281,207.9924621582031,195.4418792724609,26,8175.336376125,-0.007049560546875,-0.0252227783203125,-1.016265869140625,8175.308952125,0.01307718621672509,-0.01583062846775802,-0.02950889014251399
2015-05-21 13:10:39.384,110,1432177839.316632,-33.88897052969214,151.1932511163421,13.52325,0,306.9140625,8,5,-9999,1432177839.341688,18.02230834960938,-15.00107955932617,71.05380249023438,207.9854736328125,195.4348907470703,26,8175.394602125,-0.007415771484375,-0.02728271484375,-1.0157470703125,8175.375195125001,0.01317013053876886,-0.01338824343204635,-0.02338734806085786
2015-05-21 13:10:39.446,111,1432177839.316632,-33.88897052969214,151.1932511163421,13.52325,0,306.9140625,8,5,-9999,1432177839.420469,17.43460083007812,-15.38010025024414,71.94927978515625,207.9714202880859,195.4208374023438,26,8175.452828125,-0.008575439453125,-0.0253448486328125,-1.01861572265625,8175.441418125,0.01434538352782082,-0.01461383016570081,-0.0270726303773095
2015-05-21 13:10:39.501,112,1432177839.316632,-33.88897052969214,151.1932511163421,13.52325,0,306.9140625,8,5,-9999,1432177839.499251,17.60748291015625,-15.62128829956055,71.783447265625,207.9573364257812,195.4067535400391,26,8175.511040125,-0.007110595703125,-0.024261474609375,-1.019073486328125,8175.507641125,0.01685488022300249,-0.01580053474744012,-0.02341957231004781
2015-05-21 13:10:39.559,113,1432177839.316632,-33.88897052969214,151.1932511163421,13.52325,0,306.9140625,8,5,-9999,1432177839.538658,17.33090209960938,-15.48347091674805,71.98245239257812,207.9503021240234,195.3997192382812,26,8175.569285125001,-0.007080078125,-0.0252838134765625,-1.022674560546875,8175.540776125001,0.01552063651687279,-0.01583941689935528,-0.03075791269376115
2015-05-21 13:10:39.617,114,1432177839.316632,-33.88897052969214,151.1932511163421,13.52325,0,306.9140625,8,5,-9999,1432177839.57856,17.64205932617188,-15.10446548461914,72.14828491210938,207.9432678222656,195.3926849365234,26,8175.627514125001,-0.0078277587890625,-0.0251007080078125,-1.023941040039062,8175.607007125001,0.01437680882868376,-0.01580506212129325,-0.02462065796167355
2015-05-21 13:10:39.683,115,1432177839.316632,-33.88897052969214,151.1932511163421,13.52325,0,306.9140625,8,5,-9999,1432177839.657495,17.26174926757812,-15.5523796081543,71.71711730957031,207.9296875,195.3791046142578,26,8175.685756125001,-0.008819580078125,-0.0266876220703125,-1.024124145507812,8175.673260125001,0.01679202962127662,-0.01341807083625523,-0.02832351714131972
2015-05-21 13:10:39.733,116,1432177839.316632,-33.88897052969214,151.1932511163421,13.52325,0,306.9140625,8,5,-9999,1432177839.696141,16.77774047851562,-15.62128067016602,71.25279235839844,207.9229583740234,195.3723754882812,26,8175.743968125001,-0.0075836181640625,-0.02813720703125,-1.024276733398438,8175.739484125001,0.0179877889507222,-0.01343245190614166,-0.03078560956909798
2015-05-21 13:10:39.792,117,1432177839.316632,-33.88897052969214,151.1932511163421,13.52325,0,306.9140625,8,5,-9999,1432177839.775006,17.74578857421875,-15.48345565795898,71.51812744140625,207.9098815917969,195.3592987060547,26,8175.802195125,-0.0077056884765625,-0.0253753662109375,-1.023406982421875,8175.772595125,0.01188462268058761,-0.01461169963682875,-0.02704866192749879
2015-05-21 13:10:39.851,118,1432177839.316632,-33.88897052969214,151.1932511163421,13.52325,0,306.9140625,8,5,-9999,1432177839.814434,17.91867065429688,-15.58681869506836,72.01560974121094,207.9035186767578,195.3529357910156,26,8175.860454125001,-0.0084075927734375,-0.0258941650390625,-1.026901245117188,8175.838849125001,0.01679842120789281,-0.01100897531416956,-0.02832724556684583
2015-05-21 13:10:39.923,119,1432177839.316632,-33.88897052969214,151.1932511163421,13.52325,0,306.9140625,8,5,-9999,1432177839.89313,17.6766357421875,-15.75909042358398,72.31410980224609,207.8910675048828,195.3404846191406,26,8175.918682125,-0.0076904296875,-0.0243988037109375,-1.027252197265625,8175.905088125,0.01927329680890345,-0.01220899570135926,-0.02712429570245704
2015-05-21 13:10:39.967,120,1432177839.316632,-33.88897052969214,151.1932511163421,13.52325,0,306.9140625,8,5,-9999,1432177839.932609,18.19522094726562,-15.86246109008789,72.01560974121094,207.8848571777344,195.3342742919922,26,8175.976897125001,-0.00860595703125,-0.0266265869140625,-1.027069091796875,8175.971326125001,0.02051459619298938,-0.01461249858515577,-0.02590749740039984
2015-05-21 13:10:40.025,121,1432177839.316632,-33.88897052969214,151.1932511163421,13.52325,0,306.9140625,8,5,-9999,1432177840.011375,18.57553100585938,-15.20781326293945,72.24777221679688,207.8724975585938,195.3219146728516,26,8176.035136125,-0.0085601806640625,-0.0265350341796875,-1.0235595703125,8176.004437125001,0.01688177815001229,-0.0121802335615864,-0.02220011084690053
2015-05-21 13:10:40.083,122,1432177839.316632,-33.88897052969214,151.1932511163421,13.52325,0,306.9140625,8,5,-9999,1432177840.050751,18.4718017578125,-15.03554916381836,73.2095947265625,207.8663024902344,195.3157196044922,26,8176.093356125,-0.00927734375,-0.0266876220703125,-1.025665283203125,8176.070660125,0.01686127180961868,-0.01339143922535444,-0.02342330073557392
2015-05-21 13:10:40.141,123,1432177839.316632,-33.88897052969214,151.1932511163421,13.52325,0,306.9140625,8,5,-9999,1432177840.129471,18.2989501953125,-15.69020462036133,72.51309204101562,207.85400390625,195.3034210205078,26,8176.151591125001,-0.0070953369140625,-0.02447509765625,-1.025680541992188,8176.136914125001,0.01925598626181793,-0.01221565360408446,-0.02834934980389349
2015-05-21 13:10:40.199,124,1432177839.316632,-33.88897052969214,151.1932511163421,13.52325,0,306.9140625,8,5,-9999,1432177840.16901,18.33349609375,-15.58683395385742,72.01560974121094,207.8478546142578,195.2972717285156,26,8176.209818125,-0.007171630859375,-0.025482177734375,-1.021728515625,8176.170025125,0.01438000462199185,-0.01460051436025041,-0.0246225221744366
2015-05-21 13:10:40.258,125,1432177840.233313,-33.88897052969214,151.1932511163421,13.55072,0,306.9140625,8,5,-9999,1432177840.250492,17.884033203125,-15.62128829956055,71.71710968017578,207.8357086181641,195.2851257324219,26,8176.268047125001,-0.0062103271484375,-0.025360107421875,-1.020492553710938,8176.236261125,0.01678883382796853,-0.01462261859729807,-0.02832165292855667
2015-05-21 13:10:40.321,126,1432177840.233313,-33.88897052969214,151.1932511163421,13.55072,0,306.9140625,8,5,-9999,1432177840.286522,17.74578857421875,-15.41454696655273,72.24776458740234,207.8298034667969,195.2792205810547,26,8176.326274125,-0.00830078125,-0.025787353515625,-1.019973754882812,8176.302502125001,0.01807114589284168,-0.01460371015355851,-0.02465847484915267
2015-05-21 13:10:40.374,127,1432177840.233313,-33.88897052969214,151.1932511163421,13.55072,0,306.9140625,8,5,-9999,1432177840.364842,18.36810302734375,-15.8280143737793,71.91610717773438,207.8183288574219,195.2677459716797,26,8176.384501125,-0.006927490234375,-0.025054931640625,-1.022064208984375,8176.368725125,0.01806022693237236,-0.01220127253419803,-0.02588725737611524
2015-05-21 13:10:40.432,128,1432177840.233313,-33.88897052969214,151.1932511163421,13.55072,0,306.9140625,8,5,-9999,1432177840.404307,17.95321655273438,-16.37929153442383,72.04876708984375,207.8126373291016,195.2620544433594,26,8176.442729125,-0.00787353515625,-0.026519775390625,-1.02154541015625,8176.434966125001,0.01682798229599269,-0.01942083593329384,-0.0246390337731951
2015-05-21 13:10:40.492,129,1432177840.233313,-33.88897052969214,151.1932511163421,13.55072,0,306.9140625,8,5,-9999,1432177840.482926,17.91860961914062,-15.79356002807617,72.5462646484375,207.8013610839844,195.2507781982422,26,8176.500957125,-0.0066375732421875,-0.0263214111328125,-1.018630981445312,8176.468091125001,0.009430253419970582,-0.01220047358587101,-0.02702842190321419
2015-05-21 13:10:40.562,130,1432177840.233313,-33.88897052969214,151.1932511163421,13.55072,0,306.9140625,8,5,-9999,1432177840.522306,18.09149169921875,-15.62128829956055,72.51309204101562,207.7958221435547,195.2452392578125,26,8176.559185125,-0.0077056884765625,-0.0235748291015625,-1.018936157226562,8176.534339125001,0.01563089138600207,-0.01339037396091841,-0.02341131651066857
2015-05-21 13:10:40.607,131,1432177840.233313,-33.88897052969214,151.1932511163421,13.55072,0,306.9140625,8,5,-9999,1432177840.601098,18.22976684570312,-15.34563827514648,72.64576721191406,207.7846221923828,195.2340393066406,26,8176.617401125,-0.0072784423828125,-0.025543212890625,-1.018768310546875,8176.600567125,0.01926690522228726,-0.01461809122344494,-0.02712056727693093
2015-05-21 13:10:40.665,132,1432177840.233313,-33.88897052969214,151.1932511163421,13.55072,0,306.9140625,8,5,-9999,1432177840.640329,18.09146118164062,-15.34563827514648,72.18143463134766,207.7790069580078,195.2284240722656,26,8176.675640125,-0.008544921875,-0.0275115966796875,-1.017379760742188,8176.666801125,0.01686127180961868,-0.01339143922535444,-0.02342330073557392
2015-05-21 13:10:40.723,133,1432177840.233313,-33.88897052969214,151.1932511163421,13.55072,0,306.9140625,8,5,-9999,1432177840.719083,17.57290649414062,-15.24227523803711,72.214599609375,207.7676696777344,195.2170867919922,26,8176.733851125001,-0.007110595703125,-0.025543212890625,-1.0169677734375,8176.733044125001,0.01684396126253317,-0.01339809712807964,-0.02464835483701037
2015-05-21 13:10:40.782,134,1432177840.233313,-33.88897052969214,151.1932511163421,13.55072,0,306.9140625,8,5,-9999,1432177840.758402,17.36550903320312,-15.44900894165039,72.41359710693359,207.7619781494141,195.2113952636719,26,8176.792094125,-0.0078582763671875,-0.026031494140625,-1.015182495117188,8176.766156125001,0.01186731213350209,-0.01461835753955395,-0.02827371602893524
2015-05-21 13:10:40.840,135,1432177840.233313,-33.88897052969214,151.1932511163421,13.55072,0,306.9140625,8,5,-9999,1432177840.837163,18.09152221679688,-15.75910568237305,72.31410217285156,207.7508087158203,195.2002258300781,26,8176.850321125001,-0.007110595703125,-0.02642822265625,-1.017837524414062,8176.832409125001,0.02049728564590387,-0.01461915648788097,-0.02713255150183629
2015-05-21 13:10:40.898,136,1432177840.233313,-33.88897052969214,151.1932511163421,13.55072,0,306.9140625,8,5,-9999,1432177840.877202,17.78036499023438,-15.86246871948242,71.81660461425781,207.7453155517578,195.1947326660156,26,8176.908550125,-0.0063323974609375,-0.024932861328125,-1.0159912109375,8176.898633125001,0.01440051096238546,-0.01338930869648238,-0.02339933228576321
2015-05-21 13:10:40.962,137,1432177840.233313,-33.88897052969214,151.1932511163421,13.55072,0,306.9140625,8,5,-9999,1432177840.955234,17.91867065429688,-15.44900894165039,72.28092956542969,207.7342529296875,195.1836700439453,26,8176.966797125,-0.0077667236328125,-0.027862548828125,-1.015029907226562,8176.964886125001,0.01560718925230037,-0.01580612738572928,-0.0246326421865789
2015-05-21 13:10:41.015,138,1432177840.233313,-33.88897052969214,151.1932511163421,13.55072,0,306.9140625,8,5,-9999,1432177840.995457,17.91867065429688,-15.31118392944336,72.41359710693359,207.7287292480469,195.1781463623047,26,8177.025004125,-0.0080413818359375,-0.026275634765625,-1.017379760742188,8176.997989125,0.01560718925230037,-0.01580612738572928,-0.0246326421865789
2015-05-21 13:10:41.073,139,1432177840.233313,-33.88897052969214,151.1932511163421,13.55072,0,306.9140625,8,5,-9999,1432177841.034214,17.71121215820312,-15.24226760864258,72.214599609375,207.7231292724609,195.1725463867188,26,8177.083233125,-0.0073699951171875,-0.026580810546875,-1.013397216796875,8177.064230125001,0.02297988441407573,-0.019426162255474,-0.02469895489772188
2015-05-21 13:10:41.132,140,1432177840.233313,-33.88897052969214,151.1932511163421,13.55072,0,306.9140625,8,5,-9999,1432177841.112814,18.05691528320312,-15.0355339050293,72.14826965332031,207.7120208740234,195.1614379882812,26,8177.141460125001,-0.006561279296875,-0.0255126953125,-1.015426635742188,8177.130475125001,0.01316373895215267,-0.01579733895413202,-0.02338361963533174
2015-05-21 13:10:41.203,141,1432177840.233313,-33.88897052969214,151.1932511163421,13.55072,0,306.9140625,8,5,-9999,1432177841.191761,18.33346557617188,-15.3111686706543,72.41359710693359,207.7010803222656,195.1504974365234,26,8177.199688125001,-0.00701904296875,-0.0243377685546875,-1.014358520507812,8177.196698125001,0.01433899194120463,-0.01702292568778649,-0.02706890195178339
2015-05-21 13:10:41.248,142,1432177841.237202,-33.88897052969214,151.1932511163421,13.56537,0,306.9140625,8,5,-9999,1432177841.231004,18.3680419921875,-15.34562301635742,72.64576721191406,207.6957092285156,195.1451263427734,26,8177.257918125,-0.0067291259765625,-0.0250396728515625,-1.01702880859375,8177.229837125001,0.01557256815812934,-0.01581944319117968,-0.0270827503894518
2015-05-21 13:10:41.306,143,1432177841.237202,-33.88897052969214,151.1932511163421,13.56537,0,306.9140625,8,5,-9999,1432177841.268897,18.50631713867188,-15.00107192993164,72.44676208496094,207.6904144287109,195.1398315429688,26,8177.316143125,-0.0072784423828125,-0.025390625,-1.013107299804688,8177.296063125001,0.01436908566152253,-0.01219807674088993,-0.02585130470139917
2015-05-21 13:10:41.364,144,1432177841.237202,-33.88897052969214,151.1932511163421,13.56537,0,306.9140625,8,5,-9999,1432177841.34723,17.78036499023438,-15.44899368286133,72.54625701904297,207.6799011230469,195.1293182373047,26,8177.374365125001,-0.0071258544921875,-0.024627685546875,-1.015975952148438,8177.362286125001,0.01682345492213956,-0.01460930279184768,-0.02587154472568377
2015-05-21 13:10:41.422,145,1432177841.237202,-33.88897052969214,151.1932511163421,13.56537,0,306.9140625,8,5,-9999,1432177841.386593,18.19522094726562,-15.24225997924805,72.54624938964844,207.6747131347656,195.1241302490234,26,8177.432597125001,-0.007904052734375,-0.0270538330078125,-1.0140380859375,8177.428540125001,0.01561038504560846,-0.01460157962468645,-0.02463450639934196
2015-05-21 13:10:41.480,146,1432177841.237202,-33.88897052969214,151.1932511163421,13.56537,0,306.9140625,8,5,-9999,1432177841.464961,18.67922973632812,-15.0355339050293,72.54624938964844,207.6645202636719,195.1139373779297,26,8177.490824125,-0.0072021484375,-0.0266876220703125,-1.015579223632812,8177.461651125001,0.01557576395143743,-0.01461489543013684,-0.02708461460221486
2015-05-21 13:10:41.540,147,1432177841.237202,-33.88897052969214,151.1932511163421,13.56537,0,306.9140625,8,5,-9999,1432177841.504856,18.47177124023438,-15.44899368286133,72.87791442871094,207.6594085693359,195.1088256835938,26,8177.549053125001,-0.0078582763671875,-0.0257415771484375,-1.0133056640625,8177.527875125001,0.01928101997606468,-0.01581598108176258,-0.02589364896273142
2015-05-21 13:10:41.602,148,1432177841.237202,-33.88897052969214,151.1932511163421,13.56537,0,306.9140625,8,5,-9999,1432177841.583899,17.84951782226562,-15.1733512878418,72.28091430664062,207.6491088867188,195.0985260009766,26,8177.607279125001,-0.0069732666015625,-0.02777099609375,-1.0155029296875,8177.594128125001,0.01437361303537566,-0.01700960988233609,-0.02461879374891049
2015-05-21 13:10:41.655,149,1432177841.237202,-33.88897052969214,151.1932511163421,13.56537,0,306.9140625,8,5,-9999,1432177841.622818,18.16067504882812,-15.34563064575195,71.91609191894531,207.6439208984375,195.0933380126953,26,8177.665507125001,-0.007598876953125,-0.0257568359375,-1.014053344726562,8177.660351125,0.01435949828159824,-0.01581172002401845,-0.02584571206311
2015-05-21 13:10:41.713,150,1432177841.237202,-33.88897052969214,151.1932511163421,13.56537,0,306.9140625,8,5,-9999,1432177841.701574,18.43722534179688,-15.27672958374023,72.11508178710938,207.6334533691406,195.0828704833984,26,8177.723734125,-0.0072021484375,-0.026458740234375,-1.014144897460938,8177.693494125,0.01685807601631058,-0.01459598698639728,-0.02342143652281087
2015-05-21 13:10:41.772,151,1432177841.237202,-33.88897052969214,151.1932511163421,13.56537,0,306.9140625,8,5,-9999,1432177841.740856,18.36810302734375,-14.86326217651367,72.77840423583984,207.6283111572266,195.0777282714844,26,8177.781998125,-0.00823974609375,-0.0258636474609375,-1.013809204101562,8177.759717125001,0.0155443386505745,-0.0134236634745444,-0.02953658701785081
2015-05-21 13:10:41.843,152,1432177841.237202,-33.88897052969214,151.1932511163421,13.56537,0,306.9140625,8,5,-9999,1432177841.820398,17.88412475585938,-15.6901969909668,72.38040161132812,207.6182250976562,195.0676422119141,26,8177.840220125,-0.00677490234375,-0.0261993408203125,-1.012405395507812,8177.825970125001,0.01434857932112892,-0.01340928240465797,-0.02707449459007256
2015-05-21 13:10:41.888,153,1432177841.237202,-33.88897052969214,151.1932511163421,13.56537,0,306.9140625,8,5,-9999,1432177841.859716,17.74581909179688,-15.4145622253418,72.11508178710938,207.6132202148438,195.0626373291016,26,8177.898448125001,-0.008544921875,-0.0252685546875,-1.011260986328125,8177.892193125001,0.01312911785798164,-0.01581065475958242,-0.02583372783820464
2015-05-21 13:10:41.946,154,1432177841.237202,-33.88897052969214,151.1932511163421,13.56537,0,306.9140625,8,5,-9999,1432177841.937622,17.71127319335938,-15.44901657104492,71.94924926757812,207.603271484375,195.0526885986328,26,8177.956675125,-0.00726318359375,-0.0263824462890625,-1.01519775390625,8177.925305125001,0.01678883382796853,-0.01462261859729807,-0.02832165292855667
2015-05-21 13:10:42.004,155,1432177841.237202,-33.88897052969214,151.1932511163421,13.56537,0,306.9140625,8,5,-9999,1432177841.977073,17.67666625976562,-15.89693069458008,71.91607666015625,207.5982971191406,195.0477142333984,26,8178.014916125,-0.007080078125,-0.0259552001953125,-1.01470947265625,8177.991559125,0.01807114589284168,-0.01460371015355851,-0.02465847484915267
2015-05-21 13:10:42.063,156,1432177841.237202,-33.88897052969214,151.1932511163421,13.56537,0,306.9140625,8,5,-9999,1432177842.055868,18.16070556640625,-15.07000350952148,72.38040161132812,207.58837890625,195.0377960205078,26,8178.073161125,-0.008026123046875,-0.024169921875,-1.01470947265625,8178.057782125001,0.0180852606466191,-0.01580160001187615,-0.02343155653495317
2015-05-21 13:10:42.121,157,1432177841.237202,-33.88897052969214,151.1932511163421,13.56537,0,306.9140625,8,5,-9999,1432177842.095142,18.12612915039062,-15.58683395385742,72.61257171630859,207.5834045410156,195.0328216552734,26,8178.131388125001,-0.00726318359375,-0.025238037109375,-1.012069702148438,8178.124036125,0.01927782418275658,-0.01702052884280542,-0.02589178474996837
2015-05-21 13:10:42.179,158,1432177841.237202,-33.88897052969214,151.1932511163421,13.56537,0,306.9140625,8,5,-9999,1432177842.174353,17.98785400390625,-15.79356002807617,72.47990417480469,207.5732421875,195.0226593017578,26,8178.189616125001,-0.0085601806640625,-0.025360107421875,-1.013458251953125,8178.157147125001,0.01434218773451273,-0.01581837792674365,-0.02707076616454645
2015-05-21 13:10:42.242,159,1432177841.237202,-33.88897052969214,151.1932511163421,13.56537,0,306.9140625,8,5,-9999,1432177842.213535,18.12615966796875,-15.51791763305664,72.47990417480469,207.5680541992188,195.0174713134766,26,8178.247843125,-0.0077362060546875,-0.0272216796875,-1.0147705078125,8178.223370125001,0.01562449979938588,-0.01579946948300409,-0.02340758808514246
2015-05-21 13:10:42.296,160,1432177841.237202,-33.88897052969214,151.1932511163421,13.56537,0,306.9140625,8,5,-9999,1432177842.290339,18.81759643554688,-15.03554153442383,72.34724426269531,207.5576629638672,195.007080078125,26,8178.306072125,-0.008056640625,-0.0250396728515625,-1.013580322265625,8178.289624125,0.01808073327276596,-0.01099006687042999,-0.02466406748744184
2015-05-21 13:10:42.354,161,1432177842.331185,-33.88897052969214,151.1932511163421,13.58954,0,306.9140625,8,5,-9999,1432177842.329657,18.541015625,-15.03554153442383,71.94924926757812,207.5524597167969,195.0018768310547,26,8178.364298125,-0.007781982421875,-0.0269775390625,-1.015869140625,8178.355867125,0.01807114589284168,-0.01460371015355851,-0.02465847484915267
2015-05-21 13:10:42.412,162,1432177842.331185,-33.88897052969214,151.1932511163421,13.58954,0,306.9140625,8,5,-9999,1432177842.408411,17.74581909179688,-15.55236434936523,72.64573669433594,207.5422058105469,194.9916229248047,26,8178.422534541667,-0.0078125,-0.0258941650390625,-1.016555786132812,8178.422097541667,0.01315281999168334,-0.01339490133477154,-0.0246124021622943
2015-05-21 13:10:42.484,163,1432177842.331185,-33.88897052969214,151.1932511163421,13.58954,0,306.9140625,8,5,-9999,1432177842.447819,18.12615966796875,-15.31117630004883,72.7452392578125,207.5371856689453,194.9866027832031,26,8178.480750541667,-0.0075531005859375,-0.0264739990234375,-1.01739501953125,8178.455208541667,0.01686766339623487,-0.01098234370326876,-0.02342702916110003
2015-05-21 13:10:42.528,164,1432177842.331185,-33.88897052969214,151.1932511163421,13.58954,0,306.9140625,8,5,-9999,1432177842.526497,18.12615966796875,-15.10445022583008,72.67890930175781,207.5272216796875,194.9766387939453,26,8178.538978541667,-0.0069122314453125,-0.0263824462890625,-1.01495361328125,8178.521431541667,0.01311180731089612,-0.01581731266230762,-0.02705878193964109
2015-05-21 13:10:42.587,165,1432177842.331185,-33.88897052969214,151.1932511163421,13.58954,0,306.9140625,8,5,-9999,1432177842.566805,18.36813354492188,-15.55236434936523,72.77840423583984,207.5221710205078,194.9715881347656,26,8178.597206541667,-0.007537841796875,-0.028045654296875,-1.014511108398438,8178.587696541667,0.01314962419837525,-0.01459944909581438,-0.02461053794953125
2015-05-21 13:10:42.645,166,1432177842.331185,-33.88897052969214,151.1932511163421,13.58954,0,306.9140625,8,5,-9999,1432177842.605329,18.33355712890625,-15.31117630004883,72.7452392578125,207.5171356201172,194.966552734375,26,8178.655463541667,-0.0069732666015625,-0.02685546875,-1.016632080078125,8178.653908541667,0.01805703113906426,-0.01340582029524087,-0.02588539316335218
2015-05-21 13:10:42.703,167,1432177842.331185,-33.88897052969214,151.1932511163421,13.58954,0,306.9140625,8,5,-9999,1432177842.684159,17.8494873046875,-15.0355339050293,72.54623413085938,207.5068664550781,194.9562835693359,26,8178.713691541667,-0.0066680908203125,-0.0251617431640625,-1.015960693359375,8178.687050541667,0.02049728564590387,-0.01461915648788097,-0.02713255150183629
2015-05-21 13:10:42.762,168,1432177842.331185,-33.88897052969214,151.1932511163421,13.58954,0,306.9140625,8,5,-9999,1432177842.723635,17.60751342773438,-15.41454696655273,72.38040161132812,207.5017700195312,194.9511871337891,26,8178.771918541667,-0.0074005126953125,-0.0261383056640625,-1.015213012695312,8178.753271541667,0.01559946608513914,-0.01219914200532597,-0.02586328892630452
2015-05-21 13:10:42.820,169,1432177842.331185,-33.88897052969214,151.1932511163421,13.58954,0,306.9140625,8,5,-9999,1432177842.802477,17.95321655273438,-15.0010871887207,72.11507415771484,207.4914703369141,194.9408874511719,26,8178.830145541667,-0.007843017578125,-0.025146484375,-1.017105102539062,8178.819527541667,0.01806022693237236,-0.01220127253419803,-0.02588725737611524
2015-05-21 13:10:42.882,170,1432177842.331185,-33.88897052969214,151.1932511163421,13.58954,0,306.9140625,8,5,-9999,1432177842.841562,17.84945678710938,-14.82881546020508,72.28090667724609,207.4863128662109,194.9357299804688,26,8178.888373541668,-0.0080413818359375,-0.0252532958984375,-1.014480590820312,8178.885750541667,0.01686446760292678,-0.0121868914643116,-0.02342516494833698
2015-05-21 13:10:42.937,171,1432177842.331185,-33.88897052969214,151.1932511163421,13.58954,0,306.9140625,8,5,-9999,1432177842.920226,17.9185791015625,-15.79356002807617,72.28090667724609,207.4759521484375,194.9253692626953,26,8178.946594541667,-0.00640869140625,-0.0261383056640625,-1.01446533203125,8178.918882541667,0.01317332633207695,-0.01218369567100351,-0.02338921227362091
2015-05-21 13:10:42.994,172,1432177842.331185,-33.88897052969214,151.1932511163421,13.58954,0,306.9140625,8,5,-9999,1432177842.959669,17.84945678710938,-15.58683395385742,73.01057434082031,207.4707794189453,194.9201965332031,26,8179.004828541667,-0.0067596435546875,-0.0272369384765625,-1.016616821289062,8178.985115541667,0.01563089138600207,-0.01339037396091841,-0.02341131651066857
2015-05-21 13:10:43.053,173,1432177842.331185,-33.88897052969214,151.1932511163421,13.58954,0,306.9140625,8,5,-9999,1432177843.038436,18.05685424804688,-15.44900894165039,72.67890930175781,207.4605102539062,194.9099273681641,26,8179.063046541667,-0.0070037841796875,-0.0262298583984375,-1.016067504882812,8179.051339541667,0.02053829832669108,-0.0121967451603449,-0.0246861717244895
2015-05-21 13:10:43.124,174,1432177842.331185,-33.88897052969214,151.1932511163421,13.58954,0,306.9140625,8,5,-9999,1432177843.117914,17.503662109375,-15.24227523803711,71.94924926757812,207.4502105712891,194.8996276855469,26,8179.121284541668,-0.0062103271484375,-0.0277862548828125,-1.01483154296875,8179.117592541667,0.0181089627803208,-0.01338584658706527,-0.02221023085904283
2015-05-21 13:10:43.169,175,1432177842.331185,-33.88897052969214,151.1932511163421,13.58954,0,306.9140625,8,5,-9999,1432177843.156756,17.57284545898438,-15.10445022583008,72.21458435058594,207.4450073242188,194.8944244384766,26,8179.179510541667,-0.0078125,-0.0257568359375,-1.015625,8179.150686541667,0.01315281999168334,-0.01339490133477154,-0.0246124021622943
2015-05-21 13:10:43.227,176,1432177842.331185,-33.88897052969214,151.1932511163421,13.58954,0,306.9140625,8,5,-9999,1432177843.196047,17.67654418945312,-15.75909805297852,72.51307678222656,207.4397888183594,194.8892059326172,26,8179.237739541667,-0.007415771484375,-0.027191162109375,-1.0137939453125,8179.216946541667,0.0106811401839808,-0.010990333186539,-0.02581721623944615
2015-05-21 13:10:43.286,177,1432177842.331185,-33.88897052969214,151.1932511163421,13.58954,0,306.9140625,8,5,-9999,1432177843.273669,17.849365234375,-15.58682632446289,72.47990417480469,207.4293670654297,194.8787841796875,26,8179.295967541667,-0.0081634521484375,-0.0262298583984375,-1.0152587890625,8179.283181541668,0.01180126573846813,-0.0134404413894119,-0.03317579664744409
2015-05-21 13:10:43.343,178,1432177843.329195,-33.88897052969214,151.1932511163421,13.59192,0,306.9140625,8,5,-9999,1432177843.312978,17.71112060546875,-15.38009262084961,72.14823913574219,207.4242401123047,194.8736572265625,26,8179.354190541667,-0.0074920654296875,-0.0266265869140625,-1.01373291015625,8179.349399541667,0.01069845073106632,-0.0109836752838138,-0.0245921621380097
2015-05-21 13:10:43.402,179,1432177843.329195,-33.88897052969214,151.1932511163421,13.59192,0,306.9140625,8,5,-9999,1432177843.392572,17.84939575195312,-15.10444259643555,71.81658935546875,207.4141387939453,194.8635559082031,26,8179.412421541667,-0.0073089599609375,-0.026214599609375,-1.015213012695312,8179.382546541668,0.01557256815812934,-0.01581944319117968,-0.0270827503894518
2015-05-21 13:10:43.461,180,1432177843.329195,-33.88897052969214,151.1932511163421,13.59192,0,306.9140625,8,5,-9999,1432177843.432367,18.26425170898438,-15.0355339050293,72.21458435058594,207.4091796875,194.8585968017578,26,8179.470648541667,-0.006988525390625,-0.0250244140625,-1.0137939453125,8179.448769541667,0.01683304230206384,-0.01099565950871916,-0.02587713736397293
2015-05-21 13:10:43.522,181,1432177843.329195,-33.88897052969214,151.1932511163421,13.59192,0,306.9140625,8,5,-9999,1432177843.510336,18.50628662109375,-15.41453170776367,72.84474182128906,207.3993530273438,194.8487701416016,26,8179.528876541667,-0.0053558349609375,-0.025604248046875,-1.012969970703125,8179.514992541667,0.01682984650875574,-0.012200207269762,-0.02587527315120988
2015-05-21 13:10:43.577,182,1432177843.329195,-33.88897052969214,151.1932511163421,13.59192,0,306.9140625,8,5,-9999,1432177843.549275,18.02224731445312,-15.62126541137695,72.77840423583984,207.3944396972656,194.8438568115234,26,8179.587111541668,-0.006866455078125,-0.02655029296875,-1.013031005859375,8179.548134541667,0.0191944672406371,-0.01584927059538857,-0.03201891946991367
2015-05-21 13:10:43.635,183,1432177843.329195,-33.88897052969214,151.1932511163421,13.59192,0,306.9140625,8,5,-9999,1432177843.627988,18.09140014648438,-15.48344039916992,72.31407165527344,207.3846588134766,194.8340759277344,26,8179.645331541667,-0.0059356689453125,-0.024871826171875,-1.01519775390625,8179.614357541667,0.01805703113906426,-0.01340582029524087,-0.02588539316335218
2015-05-21 13:10:43.693,184,1432177843.329195,-33.88897052969214,151.1932511163421,13.59192,0,306.9140625,8,5,-9999,1432177843.667468,17.78024291992188,-16.06917190551758,72.0819091796875,207.3797607421875,194.8291778564453,26,8179.703543541667,-0.0073699951171875,-0.0270233154296875,-1.014114379882812,8179.680611541668,0.01434857932112892,-0.01340928240465797,-0.02707449459007256
2015-05-21 13:10:43.762,185,1432177843.329195,-33.88897052969214,151.1932511163421,13.59192,0,306.9140625,8,5,-9999,1432177843.746023,18.43710327148438,-16.10361862182617,72.24774169921875,207.3701934814453,194.8196105957031,26,8179.761786541667,-0.0068511962890625,-0.0270538330078125,-1.014694213867188,8179.746834541667,0.01315921157829953,-0.01098580581268587,-0.02461613058782041
2015-05-21 13:10:43.810,186,1432177843.329195,-33.88897052969214,151.1932511163421,13.59192,0,306.9140625,8,5,-9999,1432177843.786048,17.9876708984375,-15.7246208190918,72.47990417480469,207.3653717041016,194.8147888183594,26,8179.819984541668,-0.0073394775390625,-0.0272064208984375,-1.016342163085938,8179.813088541667,0.01438000462199185,-0.01460051436025041,-0.0246225221744366
2015-05-21 13:10:43.868,187,1432177843.329195,-33.88897052969214,151.1932511163421,13.59192,0,306.9140625,8,5,-9999,1432177843.864334,18.64456176757812,-14.58759689331055,72.31407165527344,207.3556518554688,194.8050689697266,26,8179.878210541668,-0.008453369140625,-0.02734375,-1.017684936523438,8179.846208541667,0.01556164919766001,-0.0134170055718192,-0.02831153291641436
2015-05-21 13:10:43.926,188,1432177843.329195,-33.88897052969214,151.1932511163421,13.59192,0,306.9140625,8,5,-9999,1432177843.903722,18.81744384765625,-14.62204360961914,71.750244140625,207.3507995605469,194.8002166748047,26,8179.936439541667,-0.006744384765625,-0.026458740234375,-1.014801025390625,8179.912423541668,0.01193975011515225,-0.01338717816761031,-0.0233753638359525
2015-05-21 13:10:43.984,189,1432177843.329195,-33.88897052969214,151.1932511163421,13.59192,0,306.9140625,8,5,-9999,1432177843.982396,18.36801147460938,-15.2077751159668,72.77840423583984,207.3410797119141,194.7904968261719,26,8179.994650541667,-0.0062103271484375,-0.026397705078125,-1.01177978515625,8179.978676541667,0.01807434168614977,-0.01339916239251567,-0.02466033906191573
2015-05-21 13:10:44.043,190,1432177843.329195,-33.88897052969214,151.1932511163421,13.59192,0,306.9140625,8,5,-9999,1432177844.021841,18.16058349609375,-14.93213272094727,72.84474182128906,207.3362731933594,194.7856903076172,26,8180.052874541667,-0.0060272216796875,-0.026153564453125,-1.01312255859375,8180.011788541668,0.01556484499096811,-0.01221245781077636,-0.02831339712917742
2015-05-21 13:10:44.101,191,1432177843.329195,-33.88897052969214,151.1932511163421,13.59192,0,306.9140625,8,5,-9999,1432177844.062183,17.81484985351562,-14.51867294311523,72.44673919677734,207.3315277099609,194.7809448242188,26,8180.111121541667,-0.007171630859375,-0.0270233154296875,-1.014434814453125,8180.078011541667,0.01433126877404341,-0.01341594030738317,-0.02829954869150901
2015-05-21 13:10:44.162,192,1432177843.329195,-33.88897052969214,151.1932511163421,13.59192,0,306.9140625,8,5,-9999,1432177844.140398,17.74569702148438,-15.3455924987793,72.84474182128906,207.3221435546875,194.7715606689453,26,8180.169349541668,-0.0073699951171875,-0.0252838134765625,-1.01446533203125,8180.144265541667,0.01556484499096811,-0.01221245781077636,-0.02831339712917742
2015-05-21 13:10:44.217,193,1432177843.329195,-33.88897052969214,151.1932511163421,13.59192,0,306.9140625,8,5,-9999,1432177844.179708,17.88397216796875,-15.62123489379883,72.38040161132812,207.3175659179688,194.7669830322266,26,8180.227561541667,-0.0077362060546875,-0.0267181396484375,-1.013565063476562,8180.210509541667,0.01681253596167023,-0.0122068651724872,-0.02710032725264633
2015-05-21 13:10:44.275,194,1432177843.329195,-33.88897052969214,151.1932511163421,13.59192,0,306.9140625,8,5,-9999,1432177844.257813,18.40255737304688,-15.24222946166992,71.81658935546875,207.3085479736328,194.7579650878906,26,8180.285803541668,-0.0082855224609375,-0.02392578125,-1.011672973632812,8180.276735541667,0.01311180731089612,-0.01581731266230762,-0.02705878193964109
2015-05-21 13:10:44.334,195,1432177844.291812,-33.88897052969214,151.1932511163421,13.61365,0,306.9140625,8,5,-9999,1432177844.295795,18.5408935546875,-15.4489631652832,71.88291931152344,207.3040466308594,194.7534637451172,26,8180.344010541668,-0.0076446533203125,-0.0252838134765625,-1.012771606445312,8180.342965541668,0.01564820193308759,-0.01338371605819321,-0.02218626240923212
2015-05-21 13:10:44.404,196,1432177844.291812,-33.88897052969214,151.1932511163421,13.61365,0,306.9140625,8,5,-9999,1432177844.374348,18.7137451171875,-14.7943229675293,70.58944702148438,207.2949066162109,194.7443237304688,26,8180.402228541667,-0.0066375732421875,-0.0236663818359375,-1.012832641601562,8180.376107541667,0.01802241004489323,-0.01341913610069127,-0.02833550136622508
2015-05-21 13:10:44.450,197,1432177844.291812,-33.88897052969214,151.1932511163421,13.61365,0,306.9140625,8,5,-9999,1432177844.413756,19.23233032226562,-14.62204360961914,71.02059936523438,207.2903289794922,194.73974609375,26,8180.460456541668,-0.0065765380859375,-0.027618408203125,-1.01129150390625,8180.442331541667,0.01560718925230037,-0.01580612738572928,-0.0246326421865789
2015-05-21 13:10:44.508,198,1432177844.291812,-33.88897052969214,151.1932511163421,13.61365,0,306.9140625,8,5,-9999,1432177844.492532,19.12863159179688,-14.86323165893555,71.18643188476562,207.2812957763672,194.730712890625,26,8180.518683541667,-0.008148193359375,-0.026947021484375,-1.013656616210938,8180.508553541667,0.01313550944459783,-0.01340155923749674,-0.02583745626373075
2015-05-21 13:10:44.566,199,1432177844.291812,-33.88897052969214,151.1932511163421,13.61365,0,306.9140625,8,5,-9999,1432177844.53199,18.61007690429688,-14.82876968383789,71.35226440429688,207.2767639160156,194.7261810302734,26,8180.576910541668,-0.00836181640625,-0.0253143310546875,-1.013229370117188,8180.574807541667,0.01801601845827704,-0.01582823162277694,-0.02833177294069897
2015-05-21 13:10:44.625,200,1432177844.291812,-33.88897052969214,151.1932511163421,13.61365,0,306.9140625,8,5,-9999,1432177844.610588,18.05691528320312,-15.17332077026367,71.15325927734375,207.2677764892578,194.7171936035156,26,8180.635139541667,-0.0076141357421875,-0.0277099609375,-1.01348876953125,8180.607918541667,0.01434218773451273,-0.01581837792674365,-0.02707076616454645
2015-05-21 13:10:44.683,201,1432177844.291812,-33.88897052969214,151.1932511163421,13.61365,0,306.9140625,8,5,-9999,1432177844.650079,18.74838256835938,-14.96659469604492,71.02059936523438,207.2632904052734,194.7127075195312,26,8180.693365541667,-0.009185791015625,-0.0264129638671875,-1.012939453125,8180.674138541667,0.01803972059197874,-0.01341247819796607,-0.02711044726478863
2015-05-21 13:10:44.742,202,1432177844.291812,-33.88897052969214,151.1932511163421,13.61365,0,306.9140625,8,5,-9999,1432177844.728787,18.67929077148438,-15.03550338745117,71.02059936523438,207.2543640136719,194.7037811279297,26,8180.751589541667,-0.006927490234375,-0.0262451171875,-1.015151977539062,8180.740395541668,0.01927649260221154,-0.01100444794031642,-0.0271261599152201
2015-05-21 13:10:44.804,203,1432177844.291812,-33.88897052969214,151.1932511163421,13.61365,0,306.9140625,8,5,-9999,1432177844.768588,18.7484130859375,-15.24222946166992,71.55125427246094,207.2499542236328,194.6993713378906,26,8180.809821541668,-0.00714111328125,-0.027252197265625,-1.0147705078125,8180.806649541667,0.01441782150947098,-0.01338265079375718,-0.02217427818432676
2015-05-21 13:10:44.858,204,1432177844.291812,-33.88897052969214,151.1932511163421,13.61365,0,306.9140625,8,5,-9999,1432177844.846836,18.78298950195312,-14.72538375854492,71.25276184082031,207.2412109375,194.6906280517578,26,8180.868043541667,-0.0083770751953125,-0.0274505615234375,-1.011428833007812,8180.839743541667,0.01558668291190676,-0.01701733304949733,-0.0258558320752523
2015-05-21 13:10:44.916,205,1432177844.291812,-33.88897052969214,151.1932511163421,13.61365,0,306.9140625,8,5,-9999,1432177844.88713,18.29898071289062,-15.41449356079102,71.319091796875,207.2368316650391,194.6862487792969,26,8180.926245541667,-0.0084075927734375,-0.0257110595703125,-1.015640258789062,8180.905983541667,0.01434218773451273,-0.01581837792674365,-0.02707076616454645
2015-05-21 13:10:44.974,206,1432177844.291812,-33.88897052969214,151.1932511163421,13.61365,0,306.9140625,8,5,-9999,1432177844.96523,19.30160522460938,-14.89765548706055,71.21958923339844,207.2284698486328,194.6778869628906,26,8180.984475541667,-0.007965087890625,-0.027374267578125,-1.013641357421875,8180.972237541667,0.01317013053876886,-0.01338824343204635,-0.02338734806085786
2015-05-21 13:10:45.043,207,1432177844.291812,-33.88897052969214,151.1932511163421,13.61365,0,306.9140625,8,5,-9999,1432177845.004412,18.81756591796875,-15.03548049926758,71.28592681884766,207.2243499755859,194.6737670898438,26,8181.042701541667,-0.00592041015625,-0.027313232421875,-1.011520385742188,8181.038460541668,0.02056200046039279,-0.009780991735534018,-0.02346484604857916
2015-05-21 13:10:45.091,208,1432177844.291812,-33.88897052969214,151.1932511163421,13.61365,0,306.9140625,8,5,-9999,1432177845.0834,18.81756591796875,-14.75983810424805,71.61758422851562,207.2158966064453,194.6653137207031,26,8181.100928541668,-0.0066986083984375,-0.0260009765625,-1.012802124023438,8181.071572541668,0.01190832481428931,-0.01219594621201787,-0.02582733625158845
2015-05-21 13:10:45.149,209,1432177844.291812,-33.88897052969214,151.1932511163421,13.61365,0,306.9140625,8,5,-9999,1432177845.122672,18.782958984375,-14.86320114135742,71.58442687988281,207.2117156982422,194.6611328125,26,8181.159155541667,-0.006805419921875,-0.02752685546875,-1.015274047851562,8181.137825541668,0.01684076546922507,-0.01460264488912248,-0.02464649062424732
2015-05-21 13:10:45.207,210,1432177844.291812,-33.88897052969214,151.1932511163421,13.61365,0,306.9140625,8,5,-9999,1432177845.201205,18.85214233398438,-14.93212509155273,70.72210693359375,207.2031097412109,194.6525268554688,26,8181.217384541667,-0.0076141357421875,-0.0254364013671875,-1.014007568359375,8181.204045541667,0.01927968839551964,-0.009799900179273581,-0.02712802412798315
2015-05-21 13:10:45.268,211,1432177844.291812,-33.88897052969214,151.1932511163421,13.61365,0,306.9140625,8,5,-9999,1432177845.240546,18.50643920898438,-15.13885879516602,70.78843688964844,207.1987915039062,194.6482086181641,26,8181.275610541667,-0.0074615478515625,-0.0275115966796875,-1.014968872070312,8181.270302541667,0.01557576395143743,-0.01461489543013684,-0.02708461460221486
2015-05-21 13:10:45.323,212,1432177845.290882,-33.88897052969214,151.1932511163421,13.62024,0,306.9140625,8,5,-9999,1432177845.317477,18.47186279296875,-15.31113815307617,70.29094696044922,207.1903228759766,194.6397399902344,26,8181.333838541667,-0.0068511962890625,-0.0250701904296875,-1.014724731445312,8181.303414541667,0.01677471907419111,-0.01342472873898043,-0.02954857124275617
2015-05-21 13:10:45.382,213,1432177845.290882,-33.88897052969214,151.1932511163421,13.62024,0,306.9140625,8,5,-9999,1432177845.356765,17.98782348632812,-15.58677291870117,70.68893432617188,207.1861572265625,194.6355743408203,26,8181.392072541667,-0.007232666015625,-0.0261077880859375,-1.014205932617188,8181.369637541668,0.01441462571616288,-0.01458719855480002,-0.02217241397156371
2015-05-21 13:10:45.442,214,1432177845.290882,-33.88897052969214,151.1932511163421,13.62024,0,306.9140625,8,5,-9999,1432177845.435789,18.71383666992188,-15.7590446472168,71.12009429931641,207.177490234375,194.6269073486328,26,8181.450294541667,-0.0079803466796875,-0.0261383056640625,-1.01324462890625,8181.435891541667,0.02051459619298938,-0.01461249858515577,-0.02590749740039984
2015-05-21 13:10:45.498,215,1432177845.290882,-33.88897052969214,151.1932511163421,13.62024,0,306.9140625,8,5,-9999,1432177845.475022,19.02499389648438,-15.72459030151367,71.02059936523438,207.1730804443359,194.6224975585938,26,8181.508520541667,-0.007781982421875,-0.027374267578125,-1.017471313476562,8181.502114541667,0.01929833052315019,-0.01580932317903738,-0.02466859486129497
2015-05-21 13:10:45.556,216,1432177845.290882,-33.88897052969214,151.1932511163421,13.62024,0,306.9140625,8,5,-9999,1432177845.553638,17.60751342773438,-15.82796096801758,71.98241424560547,207.1640930175781,194.6135101318359,26,8181.566748541667,-0.00677490234375,-0.0270233154296875,-1.014236450195312,8181.535242541667,0.01192563536137483,-0.01218928830929267,-0.024602282150152
2015-05-21 13:10:45.615,217,1432177845.290882,-33.88897052969214,151.1932511163421,13.62024,0,306.9140625,8,5,-9999,1432177845.592986,18.02239990234375,-15.69013595581055,71.84974670410156,207.1595764160156,194.6089935302734,26,8181.624976541667,-0.0086212158203125,-0.0284576416015625,-1.016586303710938,8181.601479541667,0.01683756967591698,-0.01580719265016532,-0.02464462641148426
2015-05-21 13:10:45.683,218,1432177845.290882,-33.88897052969214,151.1932511163421,13.62024,0,306.9140625,8,5,-9999,1432177845.671803,18.264404296875,-14.48420333862305,71.35226440429688,207.1505737304688,194.5999908447266,26,8181.683200541667,-0.0069122314453125,-0.0261993408203125,-1.016616821289062,8181.667733541667,0.01680294858174594,-0.01582050845561572,-0.02709473461435716
2015-05-21 13:10:45.731,219,1432177845.290882,-33.88897052969214,151.1932511163421,13.62024,0,306.9140625,8,5,-9999,1432177845.712367,18.61013793945312,-14.89766311645508,71.15325927734375,207.1461029052734,194.5955200195312,26,8181.741431541667,-0.0076446533203125,-0.0282135009765625,-1.015365600585938,8181.733956541667,0.01684076546922507,-0.01460264488912248,-0.02464649062424732
2015-05-21 13:10:45.789,220,1432177845.290882,-33.88897052969214,151.1932511163421,13.62024,0,306.9140625,8,5,-9999,1432177845.750864,19.43988037109375,-15.10439682006836,70.68893432617188,207.1416625976562,194.5910797119141,26,8181.799659541667,-0.0074920654296875,-0.02532958984375,-1.014007568359375,8181.767067541668,0.01312139469082041,-0.0122036693791791,-0.02706437457793026
2015-05-21 13:10:45.848,221,1432177845.290882,-33.88897052969214,151.1932511163421,13.62024,0,306.9140625,8,5,-9999,1432177845.82896,19.09417724609375,-14.82876968383789,71.15325927734375,207.1327667236328,194.5821838378906,26,8181.857887541667,-0.006561279296875,-0.0324554443359375,-1.016647338867188,8181.833318541667,-0.07552272114079406,0.02515408912801642,-0.03728478789332735
2015-05-21 13:10:45.908,222,1432177845.290882,-33.88897052969214,151.1932511163421,13.62024,0,306.9140625,8,5,-9999,1432177845.868538,18.81759643554688,-15.24222946166992,71.21958923339844,206.9734497070312,194.4228668212891,26,8181.916114541667,-0.0099029541015625,-0.02490234375,-1.0306396484375,8181.899552541668,0.02712882307631018,0.1335681813118341,-0.02129650028903664
2015-05-21 13:10:45.964,223,1432177845.290882,-33.88897052969214,151.1932511163421,13.62024,0,306.9140625,8,5,-9999,1432177845.947388,18.71389770507812,-15.3455924987793,71.98241424560547,206.9718627929688,194.4212799072266,26,8181.974342541667,-0.0067138671875,-0.025482177734375,-1.013870239257812,8181.965798541667,-0.06235232428591619,-0.177155073608725,-0.02485288560872846
2015-05-21 13:10:46.022,224,1432177845.290882,-33.88897052969214,151.1932511163421,13.62024,0,306.9140625,8,5,-9999,1432177845.986896,18.22991943359375,-15.0699577331543,71.38542175292969,206.9673004150391,194.4167175292969,26,8182.032568541667,-0.0089569091796875,-0.025665283203125,-1.017059326171875,8182.032021541667,0.05022002762395122,0.06484877149175647,-0.02876826504336295
2015-05-21 13:10:46.082,225,1432177845.290882,-33.88897052969214,151.1932511163421,13.62024,0,306.9140625,8,5,-9999,1432177846.065972,18.74847412109375,-14.69095993041992,71.02059936523438,206.9578094482422,194.4072265625,26,8182.090796541667,-0.0064697265625,-0.02801513671875,-1.012374877929688,8182.065133541667,0.04757417708095749,-0.03750236815438682,-0.02246056800151028
2015-05-21 13:10:46.139,226,1432177845.290882,-33.88897052969214,151.1932511163421,13.62024,0,306.9140625,8,5,-9999,1432177846.104914,19.23245239257812,-14.62205123901367,71.28592681884766,206.9504241943359,194.3998413085938,26,8182.149023541667,-0.0076141357421875,-0.0279998779296875,-1.014801025390625,8182.131382541667,0.0007512777435113531,-0.05674131018522825,-0.02320039415233429
2015-05-21 13:10:46.197,227,1432177845.290882,-33.88897052969214,151.1932511163421,13.62024,0,306.9140625,8,5,-9999,1432177846.183634,19.33615112304688,-15.06996536254883,70.32411193847656,206.9464416503906,194.3958587646484,26,8182.207251541668,-0.0082855224609375,-0.024932861328125,-1.015380859375,8182.197631541667,0.006965764147211255,-0.02663960038406262,-0.02453197469737391
2015-05-21 13:10:46.255,228,1432177846.228565,-33.88897052969214,151.1932511163421,13.63715,0,306.9140625,8,5,-9999,1432177846.222849,18.88671875,-15.44897079467773,70.82160186767578,206.9463043212891,194.3957214355469,26,8182.265478541667,-0.007843017578125,-0.0263671875,-1.014495849609375,8182.263861541667,0.01685488022300249,-0.01580053474744012,-0.02341957231004781
2015-05-21 13:10:46.321,229,1432177846.228565,-33.88897052969214,151.1932511163421,13.63715,0,306.9140625,8,5,-9999,1432177846.299904,17.46926879882812,-15.27669143676758,72.51307678222656,206.9456634521484,194.3950805664062,26,8182.323706541667,-0.0077056884765625,-0.0274810791015625,-1.014739990234375,8182.296975541667,0.01685807601631058,-0.01459598698639728,-0.02342143652281087
2015-05-21 13:10:46.372,230,1432177846.228565,-33.88897052969214,151.1932511163421,13.63715,0,306.9140625,8,5,-9999,1432177846.339366,18.12615966796875,-15.38005447387695,72.08191680908203,206.9451599121094,194.3945770263672,26,8182.381935541667,-0.0081329345703125,-0.0259552001953125,-1.013946533203125,8182.363197541667,0.01552702810348898,-0.0134303213772696,-0.03076164111928726
2015-05-21 13:10:46.430,231,1432177846.228565,-33.88897052969214,151.1932511163421,13.63715,0,306.9140625,8,5,-9999,1432177846.418261,18.5064697265625,-15.27668380737305,70.85477447509766,206.9440612792969,194.3934783935547,26,8182.440162541667,-0.007659912109375,-0.027069091796875,-1.015731811523438,8182.429461541667,0.02175456399653027,-0.01099992056646329,-0.02592507426359436
2015-05-21 13:10:46.488,232,1432177846.228565,-33.88897052969214,151.1932511163421,13.63715,0,306.9140625,8,5,-9999,1432177846.457655,18.29904174804688,-14.86321640014648,71.12010192871094,206.943359375,194.3927764892578,26,8182.498390541668,-0.00738525390625,-0.0243682861328125,-1.015579223632812,8182.495675541667,0.01437361303537566,-0.01700960988233609,-0.02461879374891049
2015-05-21 13:10:46.548,233,1432177846.228565,-33.88897052969214,151.1932511163421,13.63715,0,306.9140625,8,5,-9999,1432177846.536741,18.85223388671875,-15.41450119018555,71.38542175292969,206.9416046142578,194.3910217285156,26,8182.556609541667,-0.0079193115234375,-0.026947021484375,-1.014968872070312,8182.528788541667,0.01689269711048162,-0.01458267118094688,-0.02097132831993797
2015-05-21 13:10:46.604,234,1432177846.228565,-33.88897052969214,151.1932511163421,13.63715,0,306.9140625,8,5,-9999,1432177846.575679,18.54107666015625,-15.7245979309082,71.55125427246094,206.9405364990234,194.3899536132812,26,8182.614845541667,-0.0071258544921875,-0.0248260498046875,-1.013961791992188,8182.595040541667,0.01557576395143743,-0.01461489543013684,-0.02708461460221486
2015-05-21 13:10:46.663,235,1432177846.228565,-33.88897052969214,151.1932511163421,13.63715,0,306.9140625,8,5,-9999,1432177846.654207,19.05966186523438,-14.72539901733398,71.12010192871094,206.9382171630859,194.3876342773438,26,8182.673056541667,-0.0074005126953125,-0.02703857421875,-1.015182495117188,8182.661293541667,0.01066010121136917,-0.02543824841632788,-0.02456979158485303
2015-05-21 13:10:46.723,236,1432177846.228565,-33.88897052969214,151.1932511163421,13.63715,0,306.9140625,8,5,-9999,1432177846.693773,18.99050903320312,-14.65649032592773,71.31909942626953,206.9369659423828,194.3863830566406,26,8182.731300541667,-0.006866455078125,-0.0284423828125,-1.013671875,8182.727517541667,0.02549177795423847,-0.0001555286076606275,-0.02475275075174148
