loggingTime,loggingSample,locationTimestamp_since1970,locationLatitude,locationLongitude,locationAltitude,locationSpeed,locationCourse,locationVerticalAccuracy,locationHorizontalAccuracy,locationFloor,locationHeadingTimestamp_since1970,locationHeadingX,locationHeadingY,locationHeadingZ,locationTrueHeading,locationMagneticHeading,locationHeadingAccuracy,accelerometerTimestamp_sinceReboot,accelerometerAccelerationX,accelerometerAccelerationY,accelerometerAccelerationZ,gyroTimestamp_sinceReboot,gyroRotationX,gyroRotationY,gyroRotationZ
2015-05-21 13:11:03.153,1,1432177862.251787,-33.88897052969214,151.1932511163421,14.74847,0,306.9140625,12,5,-9999,1432177863.142832,22.83566284179688,-9.634788513183594,47.61150360107422,259.4366149902344,246.8860321044922,10,8199.151067541667,-0.009246826171875,-0.04815673828125,-1.037643432617188,8199.126835541667,-0.1402631019761843,-0.03791036443338697,0.0957670064831404
2015-05-21 13:11:03.206,2,1432177862.251787,-33.88897052969214,151.1932511163421,14.74847,0,306.9140625,12,5,-9999,1432177863.182797,23.31948852539062,-9.979270935058594,47.47881698608398,259.3698425292969,246.8192443847656,10,8199.209290541667,0.023406982421875,-0.0337066650390625,-1.0325927734375,8199.193058541667,-0.1072689329150836,-0.2098459086216656,-0.06234779691206306
2015-05-21 13:11:03.264,3,1432177862.251787,-33.88897052969214,151.1932511163421,14.74847,0,306.9140625,12,5,-9999,1432177863.260855,23.8724365234375,-10.80604553222656,45.9528923034668,258.3544311523438,245.8038330078125,10,8199.267521541668,-0.00341796875,-0.0511322021484375,-1.00323486328125,8199.259311541668,-0.1598629023347315,-0.1562596453798543,0.0373268658385506
2015-05-21 13:11:03.323,4,1432177863.269566,-33.88897052969214,151.1932511163421,14.82062,0,306.9140625,12,5,-9999,1432177863.300175,23.94158935546875,-10.94384002685547,46.21826934814453,258.2311096191406,245.6805114746094,10,8199.325748541667,0.00286865234375,-0.0503692626953125,-1.002685546875,8199.325535541668,-0.04404282547551243,-0.1680750258720998,-0.124288929125671
2015-05-21 13:11:03.381,5,1432177863.269566,-33.88897052969214,151.1932511163421,14.82062,0,306.9140625,12,5,-9999,1432177863.377472,23.66506958007812,-11.15054321289062,46.21826934814453,257.5171813964844,244.9665832519531,10,8199.383977541667,0.0045318603515625,-0.0304107666015625,-1.001571655273438,8199.358646541667,-0.000524376418636602,-0.1539717236873672,-0.1823202745429336
2015-05-21 13:11:03.445,6,1432177863.269566,-33.88897052969214,151.1932511163421,14.82062,0,306.9140625,12,5,-9999,1432177863.417176,24.32171630859375,-10.77159881591797,46.38413238525391,258.4511413574219,245.9005584716797,10,8199.442203541666,-0.00103759765625,-0.0296173095703125,-0.9745941162109375,8199.424900541668,0.09156001090914223,-0.1741084173216743,-0.1059970071784618
2015-05-21 13:11:03.498,7,1432177863.269566,-33.88897052969214,151.1932511163421,14.82062,0,306.9140625,12,5,-9999,1432177863.495426,24.63275146484375,-10.73715209960938,45.75385665893555,258.9040832519531,246.3534851074219,10,8199.500423541667,-0.00775146484375,-0.0413665771484375,-0.9994354248046875,8199.491123541668,-0.1180302342478758,-0.04559065470106648,0.01592197489314773
2015-05-21 13:11:03.556,8,1432177863.269566,-33.88897052969214,151.1932511163421,14.82062,0,306.9140625,12,5,-9999,1432177863.534967,24.42538452148438,-11.08163452148438,45.75385665893555,258.8162231445312,246.265625,10,8199.558654541666,-0.0187835693359375,-0.0447998046875,-1.014572143554688,8199.557372541667,-0.1118908489869161,-0.07736136755738476,-0.06618008572068708
2015-05-21 13:11:03.614,9,1432177863.269566,-33.88897052969214,151.1932511163421,14.82062,0,306.9140625,12,5,-9999,1432177863.574644,24.97833251953125,-11.35722351074219,45.88654327392578,258.7438659667969,246.1932830810547,10,8199.616886541668,-0.034698486328125,-0.074249267578125,-0.973297119140625,8199.590488541668,-0.1015236954954557,-0.04179778067657563,0.05128715627274597
2015-05-21 13:11:03.684,10,1432177863.269566,-33.88897052969214,151.1932511163421,14.82062,0,306.9140625,12,5,-9999,1432177863.653895,25.18572998046875,-11.77059936523438,45.55482482910156,258.6327819824219,246.0821990966797,10,8199.675114541667,-0.0524749755859375,-0.1059112548828125,-0.952301025390625,8199.656711541667,-0.1132107116231594,-0.1948456537817943,0.03693112010056483
2015-05-21 13:11:03.730,11,1432177863.269566,-33.88897052969214,151.1932511163421,14.82062,0,306.9140625,12,5,-9999,1432177863.692584,24.97833251953125,-11.97728729248047,45.48848342895508,258.488525390625,245.9379272460938,10,8199.733342541667,-0.0617828369140625,-0.1176910400390625,-0.9807891845703125,8199.722965541667,-0.04459223560839577,-0.1115108158993618,0.08759562931045027
2015-05-21 13:11:03.788,12,1432177863.269566,-33.88897052969214,151.1932511163421,14.82062,0,306.9140625,12,5,-9999,1432177863.771256,26.08425903320312,-13.0107421875,45.28944778442383,255.6265411376953,243.0759582519531,10,8199.791568541666,-0.048004150390625,-0.1063690185546875,-0.978973388671875,8199.789188541667,-0.1143105971533621,-0.08047913024554053,0.02451546309861542
2015-05-21 13:11:03.847,13,1432177863.269566,-33.88897052969214,151.1932511163421,14.82062,0,306.9140625,12,5,-9999,1432177863.81048,25.7041015625,-13.1829833984375,45.78702926635742,254.8455047607422,242.294921875,10,8199.849796541666,-0.0172576904296875,-0.094390869140625,-0.9546051025390625,8199.822310541667,-0.07097563989559277,-0.05634556444724247,0.03875938018890422
2015-05-21 13:11:03.908,14,1432177863.269566,-33.88897052969214,151.1932511163421,14.82062,0,306.9140625,12,5,-9999,1432177863.889251,26.0496826171875,-14.00974273681641,45.38896179199219,253.6542205810547,241.1036376953125,10,8199.908024541668,-0.0341644287109375,-0.1447906494140625,-1.020126342773438,8199.888553541667,-0.1965591316271513,0.01253922767652908,0.2824740399736526
2015-05-21 13:11:03.963,15,1432177863.269566,-33.88897052969214,151.1932511163421,14.82062,0,306.9140625,12,5,-9999,1432177863.928618,25.63494873046875,-14.35423278808594,45.12358856201172,253.1173248291016,240.5667419433594,10,8199.966252541668,-0.03607177734375,-0.1150970458984375,-1.130462646484375,8199.954783541667,-0.1688579952325831,0.1728005389103364,0.2966630959454857
2015-05-21 13:11:04.022,16,1432177863.269566,-33.88897052969214,151.1932511163421,14.82062,0,306.9140625,12,5,-9999,1432177864.007303,25.01290893554688,-15.86996459960938,44.85821151733398,250.9680023193359,238.4174194335938,10,8200.024474541668,-0.0162506103515625,-0.0744171142578125,-1.217788696289062,8200.021030541668,0.05695063464690848,-0.09019727137934867,0.477423290721851
2015-05-21 13:11:04.087,17,1432177863.269566,-33.88897052969214,151.1932511163421,14.82062,0,306.9140625,12,5,-9999,1432177864.046714,24.94378662109375,-16.55892944335938,44.99089813232422,250.2022247314453,237.6516418457031,10,8200.082706541667,-0.0235595703125,-0.051788330078125,-1.235260009765625,8200.054142541667,-0.06336618971290936,0.1980747366035154,0.5296164543974419
2015-05-21 13:11:04.138,18,1432177863.269566,-33.88897052969214,151.1932511163421,14.82062,0,306.9140625,12,5,-9999,1432177864.125927,24.28717041015625,-18.38468933105469,45.82020568847656,247.096923828125,234.5463409423828,10,8200.140914541667,-0.007965087890625,0.139404296875,-1.171920776367188,8200.120378541667,-0.3010309464493247,-0.1627574921235386,0.1502081444348672
2015-05-21 13:11:04.196,19,1432177863.269566,-33.88897052969214,151.1932511163421,14.82062,0,306.9140625,12,5,-9999,1432177864.165119,23.80337524414062,-19.3492431640625,44.82503509521484,245.78857421875,233.2379913330078,10,8200.199131541667,0.0486297607421875,0.1471405029296875,-1.124343872070312,8200.186619541668,0.2674380987751742,-0.1793894657633014,0.4987879679347936
2015-05-21 13:11:04.254,20,1432177863.269566,-33.88897052969214,151.1932511163421,14.82062,0,306.9140625,12,5,-9999,1432177864.243553,24.14892578125,-20.38269805908203,43.49814605712891,244.4480133056641,231.8974304199219,10,8200.257358541667,0.0724945068359375,-0.0138397216796875,-0.7332305908203125,8200.252842541668,0.1049940607119379,-0.3438617673127421,0.354818012037328
2015-05-21 13:11:04.326,21,1432177864.255789,-33.88897052969214,151.1932511163421,14.83533,0,306.9140625,12,5,-9999,1432177864.322003,24.63275146484375,-20.31379699707031,43.96255493164062,243.1440582275391,230.5934753417969,10,8200.315586541667,0.00592041015625,0.048248291015625,-0.9421844482421875,8200.285968541668,-0.3841958746542101,-0.2727234082745454,0.2945378933956025
2015-05-21 13:11:04.371,22,1432177864.255789,-33.88897052969214,151.1932511163421,14.83533,0,306.9140625,12,5,-9999,1432177864.36215,24.8055419921875,-20.48603820800781,43.66400527954102,243.772705078125,231.2221221923828,10,8200.373813541668,0.0411529541015625,0.0251617431640625,-0.903656005859375,8200.352207541668,-0.0502597087241934,0.07205954645925502,0.1743630155218859
2015-05-21 13:11:04.429,23,1432177864.255789,-33.88897052969214,151.1932511163421,14.83533,0,306.9140625,12,5,-9999,1432177864.403099,23.94155883789062,-20.45159149169922,43.69717407226562,243.1923370361328,230.6417541503906,10,8200.432042541666,-0.011505126953125,-0.032470703125,-0.9488677978515625,8200.418461541667,0.1717608408207695,0.06486022308444382,0.2126438256629029
2015-05-21 13:11:04.487,24,1432177864.255789,-33.88897052969214,151.1932511163421,14.83533,0,306.9140625,12,5,-9999,1432177864.480152,23.457763671875,-20.79607391357422,43.49814224243164,241.6106567382812,229.0600738525391,10,8200.490269541668,-0.015167236328125,-0.04022216796875,-1.096206665039062,8200.484684541667,0.08873413067645915,-0.001478320721102985,0.184148001999055
2015-05-21 13:11:04.548,25,1432177864.255789,-33.88897052969214,151.1932511163421,14.83533,0,306.9140625,12,5,-9999,1432177864.518827,23.8033447265625,-21.00277709960938,43.82986450195312,241.5889587402344,229.0383758544922,10,8200.548497541668,-0.0646820068359375,0.04803466796875,-1.261367797851562,8200.517793541667,0.06329162120238714,-0.2072908718718436,-0.0101029679113246
2015-05-21 13:11:04.604,26,1432177864.255789,-33.88897052969214,151.1932511163421,14.83533,0,306.9140625,12,5,-9999,1432177864.597502,24.01065063476562,-21.14056396484375,43.63083648681641,240.6544952392578,228.1039123535156,10,8200.606724541667,-0.05670166015625,0.1083526611328125,-1.264480590820312,8200.584049541667,0.04478584741964453,-0.3398787435864196,-0.2498665619028314
2015-05-21 13:11:04.662,27,1432177864.255789,-33.88897052969214,151.1932511163421,14.83533,0,306.9140625,12,5,-9999,1432177864.636922,24.07977294921875,-20.45159149169922,43.96255493164062,240.8258209228516,228.2752380371094,10,8200.664944541668,-0.13519287109375,0.0548248291015625,-1.005279541015625,8200.650272541667,0.2542067155313335,0.1495346309951862,-0.1521823457509429
2015-05-21 13:11:04.725,28,1432177864.255789,-33.88897052969214,151.1932511163421,14.83533,0,306.9140625,12,5,-9999,1432177864.715668,24.2525634765625,-19.79706573486328,44.92455291748047,241.1476440429688,228.5970611572266,10,8200.723179541666,-0.0871734619140625,0.054962158203125,-0.827850341796875,8200.716526541668,0.4238247769390253,-0.001094292891913559,-0.1376774388738264
2015-05-21 13:11:04.779,29,1432177864.255789,-33.88897052969214,151.1932511163421,14.83533,0,306.9140625,12,5,-9999,1432177864.755081,24.35623168945312,-19.41813659667969,45.28945159912109,241.3599395751953,228.8093566894531,10,8200.781406541668,-0.0099334716796875,0.1006317138671875,-0.924530029296875,8200.782749541668,-0.7107979612582577,-0.1843014000778436,-0.1067418933353569
2015-05-21 13:11:04.837,30,1432177864.255789,-33.88897052969214,151.1932511163421,14.83533,0,306.9140625,12,5,-9999,1432177864.833803,23.83786010742188,-20.89942169189453,44.06207656860352,240.22216796875,227.6715850830078,10,8200.839634541668,-0.190765380859375,0.0507659912109375,-0.7921142578125,8200.815860541667,-0.2595037429395011,-0.1010677623168341,0.2036199706252784
2015-05-21 13:11:04.895,31,1432177864.255789,-33.88897052969214,151.1932511163421,14.83533,0,306.9140625,12,5,-9999,1432177864.873115,23.66506958007812,-21.55393981933594,44.22794342041016,239.8110198974609,227.2604370117188,10,8200.897862541668,-0.0818634033203125,-0.0543670654296875,-0.8366241455078125,8200.882114541668,-0.01203109654054197,0.2126286456446894,-0.1080268685613202
2015-05-21 13:11:04.964,32,1432177864.255789,-33.88897052969214,151.1932511163421,14.83533,0,306.9140625,12,5,-9999,1432177864.951814,23.2158203125,-21.17501831054688,44.39379501342773,240.8531799316406,228.3025970458984,10,8200.956074541667,-0.0583648681640625,-0.088958740234375,-0.85308837890625,8200.948337541668,0.07384120122851803,0.04304307480229668,-0.269110830255853
2015-05-21 13:11:05.012,33,1432177864.255789,-33.88897052969214,151.1932511163421,14.83533,0,306.9140625,12,5,-9999,1432177864.991227,23.14669799804688,-20.83052825927734,44.59282684326172,241.0457763671875,228.4951934814453,10,8201.014308541668,0.0274200439453125,0.038055419921875,-1.369552612304688,8201.014591541667,0.2286171995650891,0.1734641986539842,0.03549114889915898
2015-05-21 13:11:05.069,34,1432177864.255789,-33.88897052969214,151.1932511163421,14.83533,0,306.9140625,12,5,-9999,1432177865.031947,23.04299926757812,-20.86498260498047,45.02407073974609,241.6282653808594,229.0776824951172,10,8201.072545541667,0.0701446533203125,0.0516510009765625,-1.228485107421875,8201.047702541668,0.6170299234893307,0.191976896655561,0.1750314689554958
2015-05-21 13:11:05.128,35,1432177864.255789,-33.88897052969214,151.1932511163421,14.83533,0,306.9140625,12,5,-9999,1432177865.109769,22.87020874023438,-19.79708099365234,45.58799743652344,241.6597747802734,229.1091918945312,10,8201.130771541668,-0.0511932373046875,0.1476898193359375,-1.314376831054688,8201.113926541668,-0.2391494690441345,-0.03271293924998833,0.1506326523126258
2015-05-21 13:11:05.205,36,1432177864.255789,-33.88897052969214,151.1932511163421,14.83533,0,306.9140625,12,5,-9999,1432177865.188006,22.97390747070312,-19.62483215332031,45.48847961425781,240.7488250732422,228.1982421875,10,8201.189004541668,0.0953369140625,0.1455078125,-0.96856689453125,8201.180171541668,0.6341513861374501,-0.3389610182747783,0.006590524749619091
2015-05-21 13:11:05.244,37,1432177864.255789,-33.88897052969214,151.1932511163421,14.83533,0,306.9140625,12,5,-9999,1432177865.227555,22.73202514648438,-18.28133392333984,45.38896179199219,240.5636444091797,228.0130615234375,10,8201.247257541667,0.063446044921875,0.1509857177734375,-0.942779541015625,8201.246414541667,-0.7042090344052926,-3.089266864491917e-05,-0.1107622013169406
2015-05-21 13:11:05.302,38,1432177865.288793,-33.88897669039098,151.1932477635808,15.75043,0.79,289.6875,12,5,-9999,1432177865.267483,22.90484619140625,-18.86696624755859,45.35579299926758,240.4684600830078,227.9178771972656,10,8201.305491541667,0.029998779296875,0.0828704833984375,-0.81884765625,8201.279514541668,-0.1179868247221075,-0.1064689193236238,0.1177085243881942
2015-05-21 13:11:05.365,39,1432177865.288793,-33.88897669039098,151.1932477635808,15.75043,0.79,289.6875,12,5,-9999,1432177865.343713,22.90481567382812,-21.07167816162109,45.22310638427734,239.8760528564453,227.3254699707031,10,8201.363712541668,0.0258026123046875,-0.036346435546875,-0.756744384765625,8201.345768541667,0.3477808751729027,-0.02215670132113224,0.4070987937127826
2015-05-21 13:11:05.419,40,1432177865.288793,-33.88897669039098,151.1932477635808,15.75043,0.79,289.6875,12,5,-9999,1432177865.38325,22.76657104492188,-21.07167816162109,45.22310638427734,239.1475830078125,226.5970001220703,10,8201.421953541667,-0.0684814453125,-0.042083740234375,-0.8415069580078125,8201.411991541667,0.3109687983730644,-0.2352934781018088,0.1933660014801463
2015-05-21 13:11:05.477,41,1432177865.288793,-33.88897669039098,151.1932477635808,15.75043,0.79,289.6875,12,5,-9999,1432177865.462444,22.42098999023438,-19.41814422607422,45.09041595458984,238.0870971679688,225.5365142822266,10,8201.480198541667,0.0481414794921875,0.0306243896484375,-1.1864013671875,8201.478244541668,0.3115443074846305,-0.2689845964201832,-0.02100408520134594
2015-05-21 13:11:05.535,42,1432177865.288793,-33.88897669039098,151.1932477635808,15.75043,0.79,289.6875,12,5,-9999,1432177865.50118,22.97390747070312,-18.93586730957031,45.75386047363281,238.9658508300781,226.4152679443359,10,8201.538426541667,-0.08447265625,0.0463104248046875,-1.289443969726562,8201.511356541667,0.1140615915914397,-0.1968542098759321,-0.07677600474978535
2015-05-21 13:11:05.604,43,1432177865.288793,-33.88897669039098,151.1932477635808,15.75043,0.79,289.6875,12,5,-9999,1432177865.579909,23.1812744140625,-18.59138488769531,46.01923751831055,238.8821411132812,226.3315582275391,10,8201.596654541667,-0.075408935546875,0.2670745849609375,-1.406036376953125,8201.577579541667,-0.6895640452548379,0.3746519042556932,-0.5390813289115836
2015-05-21 13:11:05.652,44,1432177865.288793,-33.88897669039098,151.1932477635808,15.75043,0.79,289.6875,12,5,-9999,1432177865.619346,22.835693359375,-19.3492431640625,46.08557891845703,239.8720397949219,227.3214569091797,10,8201.654881541666,-0.0989227294921875,0.1207122802734375,-0.9209442138671875,8201.643834541666,0.5025443566523504,0.05370637180697395,-0.2377715494961275
2015-05-21 13:11:05.710,45,1432177865.288793,-33.88897669039098,151.1932477635808,15.75043,0.79,289.6875,12,5,-9999,1432177865.697678,22.83572387695312,-19.28034210205078,46.54999542236328,240.2322387695312,227.6816558837891,10,8201.713135541668,-0.04327392578125,0.0969085693359375,-0.9375,8201.710052541666,-0.3228054841540306,-0.2850788778358591,0.02563265917590366
2015-05-21 13:11:05.769,46,1432177865.288793,-33.88897669039098,151.1932477635808,15.75043,0.79,289.6875,12,5,-9999,1432177865.737888,23.28506469726562,-19.65927124023438,45.65434265136719,240.4915313720703,227.9409484863281,10,8201.771366541667,-0.064849853515625,0.016143798828125,-0.8020477294921875,8201.743168541667,-0.1703576212424067,-0.043389818376225,-0.03013047194093849
2015-05-21 13:11:05.828,47,1432177865.288793,-33.88897669039098,151.1932477635808,15.75043,0.79,289.6875,12,5,-9999,1432177865.816386,23.14675903320312,-20.21045684814453,45.98606491088867,240.6752777099609,228.1246948242188,10,8201.829569541667,0.0194244384765625,-0.0879058837890625,-0.644012451171875,8201.809425541667,0.3662152762384311,0.0291227317844525,-0.1273603528108594
2015-05-21 13:11:05.885,48,1432177865.288793,-33.88897669039098,151.1932477635808,15.75043,0.79,289.6875,12,5,-9999,1432177865.856563,24.01077270507812,-19.28035736083984,45.82020568847656,242.1339721679688,229.5833892822266,10,8201.887821541668,0.0125885009765625,-0.0499420166015625,-0.95623779296875,8201.875644541667,-0.2572288707363554,0.07264597453129047,-0.1911915304500966
2015-05-21 13:11:05.943,49,1432177865.288793,-33.88897669039098,151.1932477635808,15.75043,0.79,289.6875,12,5,-9999,1432177865.934328,23.3541259765625,-18.69474792480469,46.58316802978516,243.2459259033203,230.6953430175781,10,8201.946048541668,-0.0498199462890625,0.054901123046875,-1.315658569335938,8201.941898541667,0.3283951929659979,0.0350413409910446,0.06903632598979707
2015-05-21 13:11:06.005,50,1432177865.288793,-33.88897669039098,151.1932477635808,15.75043,0.79,289.6875,12,5,-9999,1432177865.973542,23.49234008789062,-18.55695343017578,45.98606491088867,243.50390625,230.9533233642578,10,8202.004306541667,0.0298919677734375,0.0238494873046875,-1.29400634765625,8201.975000541666,0.3191929061353381,0.3156695440131633,0.0613475136066293
2015-05-21 13:11:06.059,51,1432177865.288793,-33.88897669039098,151.1932477635808,15.75043,0.79,289.6875,12,5,-9999,1432177866.052796,22.69744873046875,-17.42015838623047,46.61633682250977,243.4346618652344,230.8840789794922,10,8202.062514541667,0.0273895263671875,0.1526336669921875,-1.364410400390625,8202.041254541668,0.2693337368390926,-0.0332431746230231,-0.09201514513943676
2015-05-21 13:11:06.118,52,1432177865.288793,-33.88897669039098,151.1932477635808,15.75043,0.79,289.6875,12,5,-9999,1432177866.092078,22.90481567382812,-16.80009460449219,46.68267822265625,243.3848419189453,230.8342590332031,10,8202.120763541667,0.076629638671875,0.1160888671875,-0.9729461669921875,8202.107486541667,0.5582076192283146,-0.3190016911690704,-0.3210624452205737
2015-05-21 13:11:06.176,53,1432177865.288793,-33.88897669039098,151.1932477635808,15.75043,0.79,289.6875,12,5,-9999,1432177866.170339,24.21810913085938,-15.21547698974609,46.81537246704102,244.4362335205078,231.8856506347656,10,8202.178989541668,0.0189361572265625,0.0331878662109375,-0.829925537109375,8202.173710541667,0.1485322171608803,-0.1306938315473116,-0.08823958166203143
2015-05-21 13:11:06.244,54,1432177865.288793,-33.88897669039098,151.1932477635808,15.75043,0.79,289.6875,12,5,-9999,1432177866.209741,24.25265502929688,-14.35427093505859,47.04758071899414,245.5470123291016,232.9964294433594,10,8202.237218541668,-0.0169677734375,-0.021087646484375,-0.6498565673828125,8202.206838541668,0.2923088275632062,-0.1828843320618124,0.08197183203652994
2015-05-21 13:11:06.294,55,1432177865.288793,-33.88897669039098,151.1932477635808,15.75043,0.79,289.6875,12,5,-9999,1432177866.288588,25.01300048828125,-14.35426330566406,46.38413238525391,245.3076934814453,232.7571105957031,10,8202.295444541667,-0.007476806640625,-0.07037353515625,-0.8304595947265625,8202.273075541667,0.1758735604921788,-0.2745362220285624,0.04526335220309574
2015-05-21 13:11:06.351,56,1432177866.289862,-33.88897920496193,151.1932326761551,18.80084,1.31,262.96875,8,5,-9999,1432177866.326077,25.4622802734375,-13.97531890869141,46.21826934814453,245.2858123779297,232.7352294921875,10,8202.353645541667,0.00067138671875,-0.0636444091796875,-0.973907470703125,8202.339328541668,0.1551435145670021,-0.1615540096269318,-0.2242578711767385
2015-05-21 13:11:06.409,57,1432177866.289862,-33.88897920496193,151.1932326761551,18.80084,1.31,262.96875,8,5,-9999,1432177866.404683,25.63507080078125,-12.35624694824219,45.52165222167969,246.6007232666016,234.0501403808594,10,8202.411899541667,-0.02337646484375,-0.0077056884765625,-1.224624633789062,8202.405552541668,0.5096976073403032,0.0045305696464428,-0.4191008617974427
2015-05-21 13:11:06.485,58,1432177866.289862,-33.88897920496193,151.1932326761551,18.80084,1.31,262.96875,8,5,-9999,1432177866.444823,25.63507080078125,-10.90941619873047,45.38896179199219,247.6499328613281,235.0993499755859,10,8202.470127541666,0.04486083984375,-0.1695404052734375,-1.081527709960938,8202.471775541668,0.55176889466083,-0.0722068192675364,-0.1265632686965987
2015-05-21 13:11:06.525,59,1432177866.289862,-33.88897920496193,151.1932326761551,18.80084,1.31,262.96875,8,5,-9999,1432177866.522882,26.67190551757812,-10.08266448974609,46.51682281494141,247.5299530029297,234.9793701171875,10,8202.528354541668,-0.1653289794921875,-0.0095977783203125,-1.1524658203125,8202.504917541668,-0.3002061654597272,-0.2478406952616081,-0.2111141059327614
2015-05-21 13:11:06.583,60,1432177866.289862,-33.88897920496193,151.1932326761551,18.80084,1.31,262.96875,8,5,-9999,1432177866.562193,26.29177856445312,-10.18601226806641,46.15192794799805,247.9556884765625,235.4051055908203,10,8202.586582541668,-0.166015625,0.0529327392578125,-0.9853668212890625,8202.571140541668,0.1624935728595117,-0.2809208844259183,-0.4655186943330878
2015-05-21 13:11:06.645,61,1432177866.289862,-33.88897920496193,151.1932326761551,18.80084,1.31,262.96875,8,5,-9999,1432177866.641124,27.19036865234375,-9.772628784179688,45.35578918457031,250.0479583740234,237.4973754882812,10,8202.644817541666,-0.05413818359375,0.04278564453125,-0.9770660400390625,8202.637394541667,-0.6343937337966474,-0.1809306370861303,-0.3611145238026024
2015-05-21 13:11:06.700,62,1432177866.289862,-33.88897920496193,151.1932326761551,18.80084,1.31,262.96875,8,5,-9999,1432177866.681409,27.60507202148438,-10.46159362792969,45.55482482910156,251.0236206054688,238.4730377197266,10,8202.703037541667,-0.118560791015625,-0.067291259765625,-0.8159637451171875,8202.703617541667,-0.2569846588643952,0.1526332189234934,-0.1018736348626921
2015-05-21 13:11:06.758,63,1432177866.289862,-33.88897920496193,151.1932326761551,18.80084,1.31,262.96875,8,5,-9999,1432177866.720241,27.67416381835938,-11.35725402832031,45.55482482910156,251.1541900634766,238.6036071777344,10,8202.761264541667,-0.04022216796875,-0.1529388427734375,-0.6739959716796875,8202.736728541668,0.05698205994777141,0.170970148293125,-0.005716208963746077
2015-05-21 13:11:06.817,64,1432177866.289862,-33.88897920496193,151.1932326761551,18.80084,1.31,262.96875,8,5,-9999,1432177866.798533,27.88153076171875,-11.49504089355469,44.69235229492188,252.0416412353516,239.4910583496094,10,8202.819493541667,0.0194854736328125,-0.042755126953125,-0.9166717529296875,8202.802982541667,-0.3099008707759426,0.1926394911347727,-0.2839787259895473
2015-05-21 13:11:06.886,65,1432177866.289862,-33.88897920496193,151.1932326761551,18.80084,1.31,262.96875,8,5,-9999,1432177866.877223,27.29403686523438,-12.83853912353516,44.72552108764648,252.3826599121094,239.8320770263672,10,8202.877720541666,0.0351409912109375,0.015869140625,-1.245849609375,8202.869205541667,-0.1812928269943811,0.2071827475315864,0.1938123472788436
2015-05-21 13:11:06.933,66,1432177866.289862,-33.88897920496193,151.1932326761551,18.80084,1.31,262.96875,8,5,-9999,1432177866.917257,26.5682373046875,-13.90644073486328,45.22310638427734,251.0917510986328,238.5411682128906,10,8202.935947541668,-0.0082244873046875,-0.0515899658203125,-1.332855224609375,8202.935443541668,0.3533122607569972,0.3511023696844495,0.3795217606250121
2015-05-21 13:11:06.991,67,1432177866.289862,-33.88897920496193,151.1932326761551,18.80084,1.31,262.96875,8,5,-9999,1432177866.956041,25.9461669921875,-13.35527038574219,45.62117004394531,251.1844635009766,238.6338806152344,10,8202.994177541666,0.06756591796875,-0.0523529052734375,-1.18023681640625,8202.968570541667,0.3983513747963083,0.1542612092978588,0.2948414937598716
2015-05-21 13:11:07.049,68,1432177866.289862,-33.88897920496193,151.1932326761551,18.80084,1.31,262.96875,8,5,-9999,1432177867.034633,24.73654174804688,-12.42516326904297,45.65434265136719,250.1991577148438,237.6485748291016,10,8203.052433541667,0.107513427734375,0.0423736572265625,-1.032272338867188,8203.034794541667,0.4555150623304232,-0.139144574318351,-0.04588360242097519
2015-05-21 13:11:07.128,69,1432177866.289862,-33.88897920496193,151.1932326761551,18.80084,1.31,262.96875,8,5,-9999,1432177867.113398,25.42776489257812,-11.80508422851562,45.85337829589844,250.3812561035156,237.8306732177734,10,8203.110676541668,0.0727386474609375,0.12158203125,-0.9049224853515625,8203.101047541668,-0.6490616261324769,-0.2533345302743326,-0.1660494255469855
2015-05-21 13:11:07.166,70,1432177866.289862,-33.88897920496193,151.1932326761551,18.80084,1.31,262.96875,8,5,-9999,1432177867.152927,26.4991455078125,-12.73519897460938,45.68751525878906,251.4351043701172,238.884521484375,10,8203.168888541668,-0.0584869384765625,0.017486572265625,-0.7935638427734375,8203.167250541666,0.07176340294603821,-0.1773047432619874,0.4100237435380166
2015-05-21 13:11:07.224,71,1432177866.289862,-33.88897920496193,151.1932326761551,18.80084,1.31,262.96875,8,5,-9999,1432177867.192192,26.43002319335938,-13.630859375,45.02407073974609,250.8500061035156,238.2994232177734,10,8203.227146541667,0.001190185546875,-0.1300201416015625,-0.7380218505859375,8203.200382541667,0.1404228916415891,-0.3877834189586559,0.2577463229361578
2015-05-21 13:11:07.288,72,1432177867.26511,-33.88898360546109,151.1932158285297,20.34351,1.42,268.59375,8,5,-9999,1432177867.271546,27.01754760742188,-13.73420715332031,44.52648544311523,249.5040130615234,236.9534301757812,10,8203.285373541667,-0.001373291015625,-0.1331787109375,-0.8600006103515625,8203.266636541668,0.1771718515235925,-0.1958211696890904,0.1223205867639935
2015-05-21 13:11:07.340,73,1432177867.26511,-33.88898360546109,151.1932158285297,20.34351,1.42,268.59375,8,5,-9999,1432177867.310359,26.94839477539062,-13.8031005859375,44.85820770263672,248.5677185058594,236.0171356201172,10,8203.343601541666,-0.032562255859375,-0.0788421630859375,-1.086700439453125,8203.332845541667,0.1743156112544825,-0.113161709459102,-0.1828603636120017
2015-05-21 13:11:07.399,74,1432177867.26511,-33.88898360546109,151.1932158285297,20.34351,1.42,268.59375,8,5,-9999,1432177867.388664,27.397705078125,-13.14857482910156,44.89138031005859,248.7410736083984,236.1904907226562,10,8203.401843375001,-0.019805908203125,-0.0298614501953125,-1.244705200195312,8203.399112541667,0.0994235266598192,0.01933028845623114,-0.195809984412512
2015-05-21 13:11:07.457,75,1432177867.26511,-33.88898360546109,151.1932158285297,20.34351,1.42,268.59375,8,5,-9999,1432177867.427596,27.881591796875,-13.07968902587891,44.62600326538086,249.4032745361328,236.8526916503906,10,8203.460101375,-0.1403350830078125,0.02044677734375,-1.17437744140625,8203.432238375,0.04179538383159456,-0.1680057836837577,-0.3199372596600152
2015-05-21 13:11:07.527,76,1432177867.26511,-33.88898360546109,151.1932158285297,20.34351,1.42,268.59375,8,5,-9999,1432177867.506612,27.9161376953125,-13.04524230957031,44.19476318359375,250.5275115966797,237.9769287109375,10,8203.518325375,-0.1834716796875,0.151458740234375,-1.179397583007812,8203.498455375,-0.1236250030659143,0.2071063148083011,-0.2539593078660652
2015-05-21 13:11:07.573,77,1432177867.26511,-33.88898360546109,151.1932158285297,20.34351,1.42,268.59375,8,5,-9999,1432177867.545371,27.881591796875,-13.63086700439453,44.29428100585938,250.5430908203125,237.9925079345703,10,8203.576557375001,-0.098724365234375,0.102264404296875,-1.031326293945312,8203.564715375,-0.09461279246670005,-0.2308712991117322,-0.3822248691314425
2015-05-21 13:11:07.632,78,1432177867.26511,-33.88898360546109,151.1932158285297,20.34351,1.42,268.59375,8,5,-9999,1432177867.62467,28.43453979492188,-13.63086700439453,44.29428100585938,251.4940643310547,238.9434814453125,10,8203.634771375,-0.1517181396484375,0.0103759765625,-0.87945556640625,8203.630938375001,-0.08730827422883072,-0.001108940277908995,0.004527906485352721
2015-05-21 13:11:07.690,79,1432177867.26511,-33.88898360546109,151.1932158285297,20.34351,1.42,268.59375,8,5,-9999,1432177867.663783,28.8492431640625,-13.975341796875,44.36062622070312,251.9911346435547,239.4405517578125,10,8203.693012375001,-0.0876617431640625,-0.1411285400390625,-0.6281280517578125,8203.664050375,0.3102878280823311,0.2445687355463368,0.05419106712536837
2015-05-21 13:11:07.765,80,1432177867.26511,-33.88898360546109,151.1932158285297,20.34351,1.42,268.59375,8,5,-9999,1432177867.742572,27.36312866210938,-13.38972473144531,45.52165222167969,250.917724609375,238.3671417236328,10,8203.751223375,0.0264434814453125,-0.120880126953125,-0.794189453125,8203.730288375,-0.04940802980758606,0.07435465868668531,-0.2887867970215764
2015-05-21 13:11:07.806,81,1432177867.26511,-33.88898360546109,151.1932158285297,20.34351,1.42,268.59375,8,5,-9999,1432177867.781944,27.05206298828125,-13.07968902587891,45.42213439941406,251.5107116699219,238.9601287841797,10,8203.809466375,0.0074462890625,-0.0123138427734375,-1.157272338867188,8203.796526375001,-0.0605578863434208,-0.1600927331368053,0.0118606542307769
2015-05-21 13:11:07.865,82,1432177867.26511,-33.88898360546109,151.1932158285297,20.34351,1.42,268.59375,8,5,-9999,1432177867.860571,26.91387939453125,-13.14858245849609,45.55482482910156,251.647216796875,239.0966339111328,10,8203.867694375,-0.032684326171875,-0.0477447509765625,-1.270217895507812,8203.862780375001,0.121867316746462,0.2814588429661143,0.3855580815517857
2015-05-21 13:11:07.927,83,1432177867.26511,-33.88898360546109,151.1932158285297,20.34351,1.42,268.59375,8,5,-9999,1432177867.90057,26.87930297851562,-13.8031005859375,46.05241012573242,250.6485748291016,238.0979919433594,10,8203.925922375001,-0.0469818115234375,0.0441741943359375,-1.306564331054688,8203.895895375001,0.07949615748719228,0.2471208428189597,0.2671755110916924
2015-05-21 13:11:07.981,84,1432177867.26511,-33.88898360546109,151.1932158285297,20.34351,1.42,268.59375,8,5,-9999,1432177867.979408,26.153564453125,-13.49307250976562,46.48365020751953,250.5382690429688,237.9876861572266,10,8203.984180375001,0.053131103515625,0.0740509033203125,-1.080474853515625,8203.962115375001,0.5640750957419772,-0.141060452406554,0.06088225936419246
2015-05-21 13:11:08.039,85,1432177867.26511,-33.88898360546109,151.1932158285297,20.34351,1.42,268.59375,8,5,-9999,1432177868.01819,26.25723266601562,-13.73420715332031,45.78703308105469,249.0346221923828,236.4840393066406,10,8204.042406375,0.0395965576171875,0.1136322021484375,-0.986602783203125,8204.028368375,-0.3461877722088173,-0.2097258000565031,-0.07594856059909773
2015-05-21 13:11:08.098,86,1432177867.26511,-33.88898360546109,151.1932158285297,20.34351,1.42,268.59375,8,5,-9999,1432177868.057357,26.53375244140625,-14.42317962646484,45.25627899169922,248.5708160400391,236.0202331542969,10,8204.100623375001,-0.009429931640625,0.0274200439453125,-0.8079681396484375,8204.094591375,-0.1033471618938329,0.1025929546731225,0.2434467457790864
2015-05-21 13:11:08.166,87,1432177867.26511,-33.88898360546109,151.1932158285297,20.34351,1.42,268.59375,8,5,-9999,1432177868.137255,27.017578125,-15.11213684082031,45.45531463623047,251.3938598632812,238.8432769775391,10,8204.158868375,0.001556396484375,-0.0875091552734375,-0.7248382568359375,8204.160845375001,0.06823604608222826,0.02685132169072392,0.2958007643845181
2015-05-21 13:11:08.214,88,1432177867.26511,-33.88898360546109,151.1932158285297,20.34351,1.42,268.59375,8,5,-9999,1432177868.17524,26.56826782226562,-15.35328674316406,46.08558654785156,250.8600921630859,238.3095092773438,10,8204.217086375,0.0041656494140625,-0.1136932373046875,-0.8046722412109375,8204.193953375001,0.2107633676171979,-0.1211013916169552,0.1341319725146039
2015-05-21 13:11:08.272,89,1432177867.26511,-33.88898360546109,151.1932158285297,20.34351,1.42,268.59375,8,5,-9999,1432177868.254203,25.91159057617188,-15.18103790283203,45.8533821105957,249.6101531982422,237.0595703125,10,8204.275318375001,-0.023406982421875,-0.059661865234375,-1.03363037109375,8204.260180375,0.1488435406923106,-0.1818425034433734,0.03068281155102092
2015-05-21 13:11:08.330,90,1432177868.27571,-33.88898658103672,151.1931988132663,22.59509,1.57,262.6171875,6,5,-9999,1432177868.293846,26.1881103515625,-14.69876861572266,45.25627899169922,249.8448791503906,237.2942962646484,10,8204.333545375001,-0.019256591796875,0.01324462890625,-1.319229125976562,8204.326434375,-0.1396961149801065,0.02947400273223395,-0.1383605396934317
2015-05-21 13:11:08.409,91,1432177868.27571,-33.88898658103672,151.1931988132663,22.59509,1.57,262.6171875,6,5,-9999,1432177868.37116,26.87930297851562,-14.83655548095703,45.78703308105469,249.9401245117188,237.3895416259766,10,8204.391783375,-0.135589599609375,0.095123291015625,-1.325469970703125,8204.392657375001,-0.9072923780709201,0.2574083677938268,-0.4240604666954972
2015-05-21 13:11:08.447,92,1432177868.27571,-33.88898658103672,151.1931988132663,22.59509,1.57,262.6171875,6,5,-9999,1432177868.409994,26.60281372070312,-15.18103790283203,45.98606872558594,250.9062652587891,238.3556823730469,10,8204.450000375,-0.1355133056640625,0.166107177734375,-1.06982421875,8204.425768375,0.2145708890276842,0.4637530185303653,0.03151052201781755
2015-05-21 13:11:08.505,93,1432177868.27571,-33.88898658103672,151.1931988132663,22.59509,1.57,262.6171875,6,5,-9999,1432177868.488848,25.80789184570312,-15.14659881591797,45.68751525878906,251.2532043457031,238.7026214599609,10,8204.508227375001,-0.055572509765625,0.088043212890625,-0.96038818359375,8204.492017375,-0.2749394246176004,-0.3989718913302968,-0.3103741145016497
2015-05-21 13:11:08.568,94,1432177868.27571,-33.88898658103672,151.1931988132663,22.59509,1.57,262.6171875,6,5,-9999,1432177868.52821,26.22262573242188,-15.28438568115234,45.15675735473633,251.1103668212891,238.5597839355469,10,8204.566454375001,-0.105072021484375,0.051055908203125,-0.865081787109375,8204.558245375001,-0.1786821301777764,-0.005494367644942476,0.07036204758043851
2015-05-21 13:11:08.622,95,1432177868.27571,-33.88898658103672,151.1931988132663,22.59509,1.57,262.6171875,6,5,-9999,1432177868.606904,26.671875,-16.55898284912109,45.12358856201172,251.5007781982422,238.9501953125,10,8204.624682375001,-0.044464111328125,-0.101959228515625,-0.7068023681640625,8204.624499375001,0.04463990619190819,0.3074153425305717,0.05300755833693716
2015-05-21 13:11:08.680,96,1432177868.27571,-33.88898658103672,151.1931988132663,22.59509,1.57,262.6171875,6,5,-9999,1432177868.646267,26.08438110351562,-16.73123168945312,45.55482482910156,251.5477600097656,238.9971771240234,10,8204.682909375,0.0400848388671875,-0.09637451171875,-0.7744140625,8204.657620375001,0.1516079019038128,0.08901882259698862,0.0008380967950479362
2015-05-21 13:11:08.738,97,1432177868.27571,-33.88898658103672,151.1931988132663,22.59509,1.57,262.6171875,6,5,-9999,1432177868.7251,25.25491333007812,-17.00682067871094,45.28944396972656,250.442138671875,237.8915557861328,10,8204.741138375,0.0543975830078125,0.0233917236328125,-1.1947021484375,8204.723833375001,-0.1511165486826932,-0.04623940074260978,0.1130386714167403
2015-05-21 13:11:08.807,98,1432177868.27571,-33.88898658103672,151.1931988132663,22.59509,1.57,262.6171875,6,5,-9999,1432177868.803883,24.70196533203125,-17.42021179199219,45.9528923034668,249.4642639160156,236.9136810302734,10,8204.799354375,-0.0063018798828125,0.0567169189453125,-1.3028564453125,8204.790087375,0.3233034952778754,0.2756086769995373,0.4473167872307232
2015-05-21 13:11:08.854,99,1432177868.27571,-33.88898658103672,151.1931988132663,22.59509,1.57,262.6171875,6,5,-9999,1432177868.843143,24.114501953125,-16.83457946777344,45.85337829589844,249.2677307128906,236.7171478271484,10,8204.857592375001,-0.0586395263671875,0.0639801025390625,-1.312973022460938,8204.856305375,-0.1441135002802209,0.06599126759940047,0.1520071097512157
2015-05-21 13:11:08.913,100,1432177868.27571,-33.88898658103672,151.1931988132663,22.59509,1.57,262.6171875,6,5,-9999,1432177868.882907,23.63067626953125,-17.45465087890625,45.85337448120117,248.0836181640625,235.5330352783203,10,8204.915821375,0.0377655029296875,0.0904693603515625,-1.117401123046875,8204.889452375,0.5721436748965902,-0.1867837325299065,0.2924422519338192
2015-05-21 13:11:08.971,101,1432177868.27571,-33.88898658103672,151.1931988132663,22.59509,1.57,262.6171875,6,5,-9999,1432177868.962911,24.07992553710938,-16.80012512207031,46.28461456298828,246.3247833251953,233.7742004394531,10,8204.974047375001,0.0298919677734375,0.0643463134765625,-0.967010498046875,8204.955675375,-0.06115709758868863,-0.2741641784242783,0.0782026601457408
2015-05-21 13:11:09.045,102,1432177868.27571,-33.88898658103672,151.1931988132663,22.59509,1.57,262.6171875,6,5,-9999,1432177869.040081,23.42327880859375,-16.76567840576172,47.11392211914062,247.4886932373047,234.9381103515625,10,8205.032276375001,-0.033416748046875,-0.0040740966796875,-0.76593017578125,8205.021922375001,-0.003206179636346395,0.1075046226715556,0.2755450274494844
2015-05-21 13:11:09.087,103,1432177868.27571,-33.88898658103672,151.1931988132663,22.59509,1.57,262.6171875,6,5,-9999,1432177869.079309,23.66519165039062,-17.07570648193359,47.27978515625,247.4756927490234,234.9251098632812,10,8205.090503375,0.0004425048828125,-0.0223846435546875,-0.7980499267578125,8205.088152375001,0.1284112361770047,-0.1277435816917218,0.2292872508953531
2015-05-21 13:11:09.146,104,1432177868.27571,-33.88898658103672,151.1931988132663,22.59509,1.57,262.6171875,6,5,-9999,1432177869.118789,23.56149291992188,-17.38575744628906,46.91488647460938,246.6777801513672,234.127197265625,10,8205.148730375,-0.0030975341796875,-0.07574462890625,-0.8132781982421875,8205.121264375,0.4591572014372155,-0.04942720456743463,0.2823067934571956
2015-05-21 13:11:09.205,105,1432177868.27571,-33.88898658103672,151.1931988132663,22.59509,1.57,262.6171875,6,5,-9999,1432177869.197434,24.11444091796875,-16.42120361328125,46.51682281494141,245.7030029296875,233.1524200439453,10,8205.206957375001,-0.0136566162109375,-0.0760650634765625,-0.9571533203125,8205.187518375,0.4163130647683477,-0.02184883989911908,0.03150945675338152
2015-05-21 13:11:09.262,106,1432177868.27571,-33.88898658103672,151.1931988132663,22.59509,1.57,262.6171875,6,5,-9999,1432177869.236925,24.49459838867188,-15.35330200195312,46.54999542236328,246.3263092041016,233.7757263183594,10,8205.265185375001,0.0207977294921875,-0.0614776611328125,-1.255752563476562,8205.253755375001,-0.1935367101060204,0.04239699192184346,-0.2064687540433361
2015-05-21 13:11:09.321,107,1432177868.27571,-33.88898658103672,151.1931988132663,22.59509,1.57,262.6171875,6,5,-9999,1432177869.315632,24.1143798828125,-16.0078125,46.45047760009766,246.0820770263672,233.531494140625,10,8205.323390375001,-0.052032470703125,0.2960052490234375,-1.460983276367188,8205.319964375001,-1.454636963212802,0.2249857131026571,-0.4872921667733576
2015-05-21 13:11:09.379,108,1432177869.351492,-33.88899232264039,151.1931836420216,23.44427,1.38,262.6171875,6,5,-9999,1432177869.354303,23.31951904296875,-17.55799102783203,46.0855827331543,246.1045379638672,233.553955078125,10,8205.381641375001,-0.1431732177734375,0.1818084716796875,-1.137374877929688,8205.353106375,-0.004047738540811434,0.3006605007416947,0.353674184349139
2015-05-21 13:11:09.445,109,1432177869.351492,-33.88899232264039,151.1931836420216,23.44427,1.38,262.6171875,6,5,-9999,1432177869.431871,22.90481567382812,-17.97136688232422,46.41730499267578,245.1133880615234,232.5628051757812,10,8205.439875375001,-0.1111602783203125,-0.042205810546875,-0.7567596435546875,8205.419315375,0.1538255161435218,-0.1991442620972912,-0.04897952718819231
2015-05-21 13:11:09.495,110,1432177869.351492,-33.88899232264039,151.1931836420216,23.44427,1.38,262.6171875,6,5,-9999,1432177869.471218,23.28500366210938,-17.52353668212891,46.05241012573242,245.5080261230469,232.9574432373047,10,8205.498095375,-0.0991973876953125,-0.0282440185546875,-0.86761474609375,8205.485583375001,-0.4813991239132303,-0.2461322774223223,-0.1456394915848363
2015-05-21 13:11:09.553,111,1432177869.351492,-33.88899232264039,151.1931836420216,23.44427,1.38,262.6171875,6,5,-9999,1432177869.550339,23.52694702148438,-18.5914306640625,45.82020568847656,245.7668304443359,233.2162475585938,10,8205.556323375,0.0324859619140625,-0.08270263671875,-0.75225830078125,8205.551806375001,0.2525342503667637,0.1132661053738331,-0.1766155171718749
2015-05-21 13:11:09.612,112,1432177869.351492,-33.88899232264039,151.1931836420216,23.44427,1.38,262.6171875,6,5,-9999,1432177869.589848,23.38870239257812,-18.17805480957031,46.01923751831055,246.1657562255859,233.6151733398438,10,8205.614550375001,0.0628204345703125,-0.098297119140625,-0.807952880859375,8205.584932375001,0.1913585106504446,0.07421617431000119,-0.0571125548411853
2015-05-21 13:11:09.686,113,1432177869.351492,-33.88899232264039,151.1931836420216,23.44427,1.38,262.6171875,6,5,-9999,1432177869.668413,23.14678955078125,-18.00581359863281,46.64950942993164,246.0427703857422,233.4921875,10,8205.672784375001,-0.0030517578125,-0.0052947998046875,-1.148025512695312,8205.651171375001,-0.07006164300947758,-0.03025004787388304,0.1857387081181594
2015-05-21 13:11:09.728,114,1432177869.351492,-33.88899232264039,151.1931836420216,23.44427,1.38,262.6171875,6,5,-9999,1432177869.707539,22.73208618164062,-18.21250152587891,46.51682281494141,245.3247985839844,232.7742156982422,10,8205.731006375001,0.0028076171875,-0.03289794921875,-1.317306518554688,8205.717394375,0.4439063431387678,0.1342515484475484,0.3875458649894208
2015-05-21 13:11:09.786,115,1432177869.351492,-33.88899232264039,151.1931836420216,23.44427,1.38,262.6171875,6,5,-9999,1432177869.746771,22.00634765625,-17.97136688232422,46.68268585205078,244.5583648681641,232.0077819824219,10,8205.789233375001,-0.0116729736328125,0.0634307861328125,-1.25201416015625,8205.783617375,-0.4213887834899298,-0.1676015158302837,-0.09365858184812466
2015-05-21 13:11:09.848,116,1432177869.351492,-33.88899232264039,151.1931836420216,23.44427,1.38,262.6171875,6,5,-9999,1432177869.826006,21.9718017578125,-17.93692016601562,46.78219604492188,243.3841552734375,230.8335723876953,10,8205.847461375,0.092193603515625,0.052337646484375,-1.101211547851562,8205.816751375001,0.1824845915821915,-0.1386446989817432,0.226326614711512
2015-05-21 13:11:09.903,117,1432177869.351492,-33.88899232264039,151.1931836420216,23.44427,1.38,262.6171875,6,5,-9999,1432177869.865077,22.66299438476562,-18.00582122802734,46.38412857055664,243.5250244140625,230.9744415283203,10,8205.905689375,0.1424407958984375,0.05450439453125,-0.9552764892578125,8205.882983375001,-0.05524514628482173,-0.404694491880659,-0.001296426818650573
2015-05-21 13:11:09.961,118,1432177869.351492,-33.88899232264039,151.1931836420216,23.44427,1.38,262.6171875,6,5,-9999,1432177869.944869,23.0777587890625,-18.00581359863281,46.64950942993164,243.1926879882812,230.6421051025391,10,8205.963894375,0.021148681640625,-0.0020751953125,-0.79095458984375,8205.949236375,-0.07131519293457787,0.04216076953315342,0.4319125308534869
2015-05-21 13:11:10.019,119,1432177869.351492,-33.88899232264039,151.1931836420216,23.44427,1.38,262.6171875,6,5,-9999,1432177869.983101,22.870361328125,-18.35029602050781,46.91488647460938,243.6096038818359,231.0590209960938,10,8206.022143375001,0.036102294921875,-0.052001953125,-0.779632568359375,8206.015459375001,0.07241374688423556,-0.04396053379782898,0.3436519102188438
2015-05-21 13:11:10.086,120,1432177869.351492,-33.88899232264039,151.1931836420216,23.44427,1.38,262.6171875,6,5,-9999,1432177870.061828,23.07772827148438,-18.83257293701172,46.64951324462891,242.9042816162109,230.3536987304688,10,8206.080371375001,0.0068511962890625,-0.0922088623046875,-0.7946319580078125,8206.081683375001,0.2464960652272271,-0.1052497241765855,0.3959595898213081
2015-05-21 13:11:10.136,121,1432177869.351492,-33.88899232264039,151.1931836420216,23.44427,1.38,262.6171875,6,5,-9999,1432177870.101195,22.90496826171875,-19.00482177734375,46.35095977783203,241.9144592285156,229.3638763427734,10,8206.138599375001,-0.03070068359375,-0.0829925537109375,-0.9831390380859375,8206.114825375,0.3491092599246342,-0.1566370153063185,0.2651634928881375
2015-05-21 13:11:10.194,122,1432177869.351492,-33.88899232264039,151.1931836420216,23.44427,1.38,262.6171875,6,5,-9999,1432177870.179949,22.69760131835938,-18.79813385009766,46.68268585205078,239.666748046875,227.1161651611328,10,8206.196826375,-0.0063934326171875,0.033447265625,-1.302871704101562,8206.181048375,-0.1824398504758782,-0.08468106581346756,-0.09366204395754177
2015-05-21 13:11:10.252,123,1432177869.351492,-33.88899232264039,151.1931836420216,23.44427,1.38,262.6171875,6,5,-9999,1432177870.219435,22.7667236328125,-19.418212890625,46.68268585205078,239.1019592285156,226.5513763427734,10,8206.255053375,-0.13134765625,0.00738525390625,-1.27880859375,8206.247301375,0.004055728024081672,-0.1353636845187655,0.1386178010547334
2015-05-21 13:11:10.325,124,1432177869.351492,-33.88899232264039,151.1931836420216,23.44427,1.38,262.6171875,6,5,-9999,1432177870.298263,21.79904174804688,-19.90047454833984,46.48365020751953,237.6280212402344,225.0774383544922,10,8206.313280375001,-0.08697509765625,0.015167236328125,-1.10009765625,8206.313525375001,0.7013437393884764,0.1428176060937883,0.229420408949857
2015-05-21 13:11:10.368,125,1432177869.351492,-33.88899232264039,151.1931836420216,23.44427,1.38,262.6171875,6,5,-9999,1432177870.336168,22.04092407226562,-19.38375091552734,46.58316802978516,238.2558441162109,225.7052612304688,10,8206.371508375001,-0.0421295166015625,-0.0141448974609375,-0.841156005859375,8206.346636375001,0.25849200804138,0.02053057515952986,-0.1728567316093371
2015-05-21 13:11:10.427,126,1432177869.351492,-33.88899232264039,151.1931836420216,23.44427,1.38,262.6171875,6,5,-9999,1432177870.414381,21.9027099609375,-18.69480133056641,47.44564437866211,238.2827758789062,225.7321929931641,10,8206.429766375,-0.001617431640625,-0.0090789794921875,-0.9333038330078125,8206.412890375001,-0.5655723249068197,0.006916229350935782,-0.141528902442299
2015-05-21 13:11:10.488,127,1432177869.351492,-33.88899232264039,151.1931836420216,23.44427,1.38,262.6171875,6,5,-9999,1432177870.453695,21.14236450195312,-19.03928375244141,47.04757690429688,238.5618286132812,226.0112457275391,10,8206.487991375001,-0.0100250244140625,-0.080780029296875,-0.8039703369140625,8206.479113375,-0.3066451563433207,0.3387642106702214,0.006147374744229906
2015-05-21 13:11:10.543,128,1432177870.477289,-33.88900011781034,151.1931697280623,21.90216,1.27,249.9609375,8,5,-9999,1432177870.532455,20.07101440429688,-20.03826904296875,47.1470947265625,238.4641418457031,225.9135589599609,10,8206.546221375,-0.01019287109375,-0.1761016845703125,-0.771087646484375,8206.545361375,0.3204861371606806,0.07863888593229577,0.1107049433535039
2015-05-21 13:11:10.601,129,1432177870.477289,-33.88900011781034,151.1931697280623,21.90216,1.27,249.9609375,8,5,-9999,1432177870.57206,19.44894409179688,-20.03825378417969,47.74419784545898,238.0569305419922,225.50634765625,10,8206.604440375,0.05499267578125,-0.1129608154296875,-1.0614013671875,8206.578478375,0.1616099360098235,0.0120590597319878,0.02658766874280608
2015-05-21 13:11:10.659,130,1432177870.477289,-33.88900011781034,151.1931697280623,21.90216,1.27,249.9609375,8,5,-9999,1432177870.650786,19.8636474609375,-19.69377899169922,47.74419403076172,237.6561584472656,225.1055755615234,10,8206.662673375,0.0431671142578125,0.0604095458984375,-1.372268676757812,8206.644701375,0.6177314001204577,-0.1191580829695244,0.1093355459209851
2015-05-21 13:11:10.730,131,1432177870.477289,-33.88900011781034,151.1931697280623,21.90216,1.27,249.9609375,8,5,-9999,1432177870.689616,19.69085693359375,-18.76367950439453,47.57833099365234,237.4520721435547,224.9014892578125,10,8206.720898375001,-0.01214599609375,0.038970947265625,-1.197967529296875,8206.710945375,0.3641510600775107,-0.1834904675259145,0.2025709514718962
2015-05-21 13:11:10.776,132,1432177870.477289,-33.88900011781034,151.1931697280623,21.90216,1.27,249.9609375,8,5,-9999,1432177870.768636,19.75994873046875,-17.45464324951172,47.64467620849609,236.3761596679688,223.8255767822266,10,8206.779132375001,0.0574798583984375,-0.0574493408203125,-1.099334716796875,8206.777178375001,1.121324243293972,0.02370719370777637,0.5391700121758831
2015-05-21 13:11:10.834,133,1432177870.477289,-33.88900011781034,151.1931697280623,21.90216,1.27,249.9609375,8,5,-9999,1432177870.808081,19.65628051757812,-16.80012512207031,48.0759162902832,235.6050567626953,223.0544738769531,10,8206.837359375,0.080047607421875,-0.0303802490234375,-0.9415283203125,8206.810290375,-0.07992732326767611,-0.3750931900483193,-0.09911965997944115
2015-05-21 13:11:10.893,134,1432177870.477289,-33.88900011781034,151.1931697280623,21.90216,1.27,249.9609375,8,5,-9999,1432177870.887118,20.83135986328125,-17.07569885253906,48.60667419433594,236.0723724365234,223.5217895507812,10,8206.895587375,-0.00177001953125,-0.0394439697265625,-0.85491943359375,8206.876543375001,-0.3238355948636732,-0.09031791257672926,0.1772751821738875
2015-05-21 13:11:10.966,135,1432177870.477289,-33.88900011781034,151.1931697280623,21.90216,1.27,249.9609375,8,5,-9999,1432177870.926999,20.52032470703125,-17.45463562011719,48.10908889770508,236.2983551025391,223.7477722167969,10,8206.953814375,0.001983642578125,-0.067108154296875,-0.791961669921875,8206.942766375001,-0.06535983210494269,-0.2779677050931295,0.042717636517089
2015-05-21 13:11:11.009,136,1432177870.477289,-33.88900011781034,151.1931697280623,21.90216,1.27,249.9609375,8,5,-9999,1432177871.004693,21.0732421875,-17.86801910400391,47.84371185302734,235.3357849121094,222.7852020263672,10,8207.012042375001,-0.0189361572265625,-0.11920166015625,-0.7288970947265625,8207.009020375001,0.3560049829351764,-0.1474235431990804,-0.03264928969993543
2015-05-21 13:11:11.068,137,1432177870.477289,-33.88900011781034,151.1931697280623,21.90216,1.27,249.9609375,8,5,-9999,1432177871.04464,20.72763061523438,-17.17904663085938,47.24661254882812,235.0371856689453,222.4866027832031,10,8207.070269375001,-0.002105712890625,-0.1593780517578125,-0.84832763671875,8207.042132375,0.2769234796297094,-0.07889588097748843,-0.06874018247658026
2015-05-21 13:11:11.126,138,1432177870.477289,-33.88900011781034,151.1931697280623,21.90216,1.27,249.9609375,8,5,-9999,1432177871.123041,21.6607666015625,-17.28239440917969,46.94805908203125,235.1579132080078,222.6073303222656,10,8207.128491375001,0.0053558349609375,-0.05169677734375,-1.230361938476562,8207.108362375,-0.2580832128140529,-0.1861413780749794,-0.3770247807869538
2015-05-21 13:11:11.184,139,1432177870.477289,-33.88900011781034,151.1931697280623,21.90216,1.27,249.9609375,8,5,-9999,1432177871.162377,22.38656616210938,-17.52352905273438,46.71585083007812,236.1573181152344,223.6067352294922,10,8207.186725375001,-0.0514068603515625,-0.038177490234375,-1.309005737304688,8207.174593375001,-0.2343738885774044,-0.1903728747310063,-0.2657531167534811
2015-05-21 13:11:11.242,140,1432177870.477289,-33.88900011781034,151.1931697280623,21.90216,1.27,249.9609375,8,5,-9999,1432177871.203038,22.1446533203125,-17.97135925292969,46.35095596313477,235.9549713134766,223.4043884277344,10,8207.244939375001,-0.132110595703125,-0.0115509033203125,-1.208969116210938,8207.240832375001,0.5633027790258542,0.1137108532758763,0.3937654113991919
2015-05-21 13:11:11.300,141,1432177870.477289,-33.88900011781034,151.1931697280623,21.90216,1.27,249.9609375,8,5,-9999,1432177871.280744,22.21377563476562,-18.5914306640625,47.1470947265625,235.2774200439453,222.7268371582031,10,8207.303150375001,-0.0874176025390625,-0.0204315185546875,-0.957366943359375,8207.273965375001,0.3071088126891036,-0.3419410955345769,-0.1470488364337062
2015-05-21 13:11:11.366,142,1432177870.477289,-33.88900011781034,151.1931697280623,21.90216,1.27,249.9609375,8,5,-9999,1432177871.359461,23.354248046875,-18.83258819580078,46.51681900024414,235.4791107177734,222.9285278320312,10,8207.361385375001,-0.00579833984375,0.0612335205078125,-0.9745635986328125,8207.340203375001,-0.5679755614745072,-0.04407318551193933,-0.2149418673675323
2015-05-21 13:11:11.416,143,1432177870.477289,-33.88900011781034,151.1931697280623,21.90216,1.27,249.9609375,8,5,-9999,1432177871.39823,22.8358154296875,-19.55599975585938,46.41730117797852,235.996826171875,223.4462432861328,10,8207.419604375,-0.0490264892578125,-0.11016845703125,-0.8157501220703125,8207.406420375,-0.3072893750110109,0.3019073927640698,0.3161936541156908
2015-05-21 13:11:11.475,144,1432177870.477289,-33.88900011781034,151.1931697280623,21.90216,1.27,249.9609375,8,5,-9999,1432177871.436954,22.24835205078125,-20.34831237792969,46.11875152587891,236.06640625,223.5158233642578,10,8207.477831375001,-0.0077056884765625,-0.1727142333984375,-0.70867919921875,8207.472674375,0.1347634080090617,0.1563113107050018,0.1895856443127788
2015-05-21 13:11:11.533,145,1432177871.486615,-33.88900460212854,151.1931596697785,27.84399,1.33,249.9609375,6,5,-9999,1432177871.515717,21.5225830078125,-20.86504364013672,46.41730499267578,235.2986602783203,222.7480773925781,10,8207.536059375001,0.014312744140625,-0.1422882080078125,-0.8592376708984375,8207.505788375,0.19675008027731,0.1239483108222499,0.2282384980580799
2015-05-21 13:11:11.606,146,1432177871.486615,-33.88900460212854,151.1931596697785,27.84399,1.33,249.9609375,6,5,-9999,1432177871.59468,21.28067016601562,-20.41722106933594,46.71585464477539,234.8774566650391,222.3268737792969,10,8207.594287375001,-0.055877685546875,-0.027801513671875,-1.27227783203125,8207.572008375,-0.1101659195488718,-0.05000537684009083,0.3123584358298677
2015-05-21 13:11:11.649,147,1432177871.486615,-33.88900460212854,151.1931596697785,27.84399,1.33,249.9609375,6,5,-9999,1432177871.634055,21.07333374023438,-20.34831237792969,46.78219985961914,234.8114166259766,222.2608337402344,10,8207.652514375,-0.0079498291015625,-0.0343780517578125,-1.229232788085938,8207.638262375,0.4745175156564655,-0.06051500944987053,0.2392908828980177
2015-05-21 13:11:11.708,148,1432177871.486615,-33.88900460212854,151.1931596697785,27.84399,1.33,249.9609375,6,5,-9999,1432177871.673189,20.20932006835938,-20.52054595947266,46.48365020751953,232.8262481689453,220.2756652832031,10,8207.710742375,0.169647216796875,0.014984130859375,-1.385025024414062,8207.704485375001,0.5798154430487815,0.0575596995882096,0.7024486849247502
2015-05-21 13:11:11.766,149,1432177871.486615,-33.88900460212854,151.1931596697785,27.84399,1.33,249.9609375,6,5,-9999,1432177871.751925,20.45123291015625,-20.62388610839844,46.58316802978516,231.8512725830078,219.3006896972656,10,8207.768954375,0.095367431640625,0.000885009765625,-1.038101196289062,8207.770739375001,-0.6309918118201802,-0.5076538975197764,0.02897359476340806
2015-05-21 13:11:11.824,150,1432177871.486615,-33.88900460212854,151.1931596697785,27.84399,1.33,249.9609375,6,5,-9999,1432177871.79112,20.93508911132812,-20.48609924316406,46.11875915527344,230.7511291503906,218.2005462646484,10,8207.827197375,0.0414581298828125,0.0622406005859375,-0.99688720703125,8207.803851375,-0.2751450206537545,-0.08312285025966219,0.3997822912500079
2015-05-21 13:11:11.882,151,1432177871.486615,-33.88900460212854,151.1931596697785,27.84399,1.33,249.9609375,6,5,-9999,1432177871.870698,20.69320678710938,-22.17405700683594,45.15675354003906,229.2804718017578,216.7298889160156,10,8207.885425375,-0.004913330078125,-0.0741424560546875,-0.69976806640625,8207.870074375,0.2923727434293681,-0.108289189928693,0.5082387276951579
2015-05-21 13:11:11.941,152,1432177871.486615,-33.88900460212854,151.1931596697785,27.84399,1.33,249.9609375,6,5,-9999,1432177871.909637,20.52041625976562,-22.48409271240234,45.72068405151367,227.8538970947266,215.3033142089844,10,8207.943653375001,-0.0092926025390625,-0.072662353515625,-0.750579833984375,8207.936327375,0.04615045116220114,-0.08789550124919319,0.2349288913485769
2015-05-21 13:11:12.007,153,1432177871.486615,-33.88900460212854,151.1931596697785,27.84399,1.33,249.9609375,6,5,-9999,1432177871.988058,20.48590087890625,-22.79414367675781,45.82020568847656,226.8267364501953,214.2761535644531,10,8208.001896375001,0.00164794921875,-0.0927581787109375,-0.8505859375,8208.002550375,-0.1082796025487687,0.1832153629853093,0.2274440771049092
2015-05-21 13:11:12.057,154,1432177871.486615,-33.88900460212854,151.1931596697785,27.84399,1.33,249.9609375,6,5,-9999,1432177872.027602,19.93292236328125,-22.51856231689453,45.95289611816406,226.7146759033203,214.1640930175781,10,8208.060137375,-0.00701904296875,-0.0724029541015625,-1.108596801757812,8208.035662375001,-0.09602187099946098,0.02701031240780165,0.07930920357866872
2015-05-21 13:11:12.115,155,1432177871.486615,-33.88900460212854,151.1931596697785,27.84399,1.33,249.9609375,6,5,-9999,1432177872.106729,19.55276489257812,-23.51755523681641,45.72068786621094,225.9402313232422,213.3896484375,10,8208.118365375001,0.072967529296875,-0.1426544189453125,-1.36566162109375,8208.101916375001,0.1187261182407135,0.08724542362710486,0.1126573067486409
2015-05-21 13:11:12.173,156,1432177871.486615,-33.88900460212854,151.1931596697785,27.84399,1.33,249.9609375,6,5,-9999,1432177872.145441,19.58731079101562,-23.68978881835938,45.42213439941406,225.8713836669922,213.32080078125,10,8208.176592375001,-0.0509033203125,-0.0443572998046875,-1.321334838867188,8208.168139375,-0.0009779127522770964,0.2460494531124208,0.05844626591509697
2015-05-21 13:11:12.247,157,1432177871.486615,-33.88900460212854,151.1931596697785,27.84399,1.33,249.9609375,6,5,-9999,1432177872.224346,19.1380615234375,-22.20851135253906,46.11875534057617,226.3627471923828,213.8121643066406,10,8208.234821375001,-0.1030731201171875,0.01287841796875,-0.9534454345703125,8208.234393375,0.3603094502050714,-0.1798999937442697,-0.2446070850660339
2015-05-21 13:11:12.291,158,1432177871.486615,-33.88900460212854,151.1931596697785,27.84399,1.33,249.9609375,6,5,-9999,1432177872.263642,18.72332763671875,-21.45066070556641,46.38413238525391,225.4502716064453,212.8996887207031,10,8208.293048375001,0.0469207763671875,0.0920867919921875,-0.997467041015625,8208.267504375,-0.2741612489470792,-0.1503146708784704,-0.2151919381938907
2015-05-21 13:11:12.348,159,1432177871.486615,-33.88900460212854,151.1931596697785,27.84399,1.33,249.9609375,6,5,-9999,1432177872.340611,18.8270263671875,-22.24295806884766,46.68268203735352,226.3251342773438,213.7745513916016,10,8208.351276375,-0.0728607177734375,-0.0615386962890625,-0.831390380859375,8208.333727375,-0.1048582394963439,-0.1521431972829188,0.3590210128696911
2015-05-21 13:11:12.408,160,1432177871.486615,-33.88900460212854,151.1931596697785,27.84399,1.33,249.9609375,6,5,-9999,1432177872.380057,19.06890869140625,-23.24197387695312,46.45047378540039,225.7362976074219,213.1857147216797,10,8208.409530791667,-0.0597381591796875,-0.1760711669921875,-0.7621917724609375,8208.399981375,0.1021468751905342,0.09808395663150933,0.3308937707007102
2015-05-21 13:11:12.465,161,1432177871.486615,-33.88900460212854,151.1931596697785,27.84399,1.33,249.9609375,6,5,-9999,1432177872.458844,18.17037963867188,-23.58644866943359,46.05240631103516,224.4787445068359,211.9281616210938,10,8208.467729791668,0.0013885498046875,-0.1912384033203125,-0.797332763671875,8208.466207791667,0.405700634140491,-0.02406858466770012,0.06469750394183997
2015-05-21 13:11:12.523,162,1432177872.488552,-33.88900887689915,151.1931464263715,28.87659,1.52,249.9609375,8,5,-9999,1432177872.49808,18.0321044921875,-23.24195861816406,46.11875152587891,224.2545318603516,211.7039489746094,10,8208.525987791667,0.0174560546875,-0.12225341796875,-1.033660888671875,8208.499315791667,0.1532883565516528,0.07810625371427993,0.2091279203917803
2015-05-21 13:11:12.581,163,1432177872.488552,-33.88900887689915,151.1931464263715,28.87659,1.52,249.9609375,8,5,-9999,1432177872.577204,17.72109985351562,-22.863037109375,47.21343612670898,223.4404602050781,210.8898773193359,10,8208.584184791667,0.0798797607421875,-0.11773681640625,-1.348037719726562,8208.565568791668,0.1674654282985807,0.08771360734674079,0.4270666429339787
2015-05-21 13:11:12.647,164,1432177872.488552,-33.88900887689915,151.1931464263715,28.87659,1.52,249.9609375,8,5,-9999,1432177872.616527,17.02993774414062,-22.79414367675781,47.41247177124023,222.5699005126953,210.0193176269531,10,8208.642413791667,-0.022796630859375,-0.0397796630859375,-1.235885620117188,8208.631803791668,0.09056824971919672,0.08006900343766833,0.5601525257723995
2015-05-21 13:11:12.698,165,1432177872.488552,-33.88900887689915,151.1931464263715,28.87659,1.52,249.9609375,8,5,-9999,1432177872.695045,16.06222534179688,-21.62288665771484,47.54516220092773,221.3412628173828,208.7906799316406,10,8208.700639791667,-0.006866455078125,-0.06134033203125,-0.98431396484375,8208.698045791667,0.3040179479279576,-0.4582093824052563,0.1790701527486009
2015-05-21 13:11:12.756,166,1432177872.488552,-33.88900887689915,151.1931464263715,28.87659,1.52,249.9609375,8,5,-9999,1432177872.734457,16.16592407226562,-22.0018310546875,47.37930297851562,219.7635955810547,207.2130126953125,10,8208.758867791666,0.1006927490234375,0.1089630126953125,-1.145370483398438,8208.731157791668,-0.7076429143148408,-0.1823588903787398,0.02922526348642055
2015-05-21 13:11:12.815,167,1432177872.488552,-33.88900887689915,151.1931464263715,28.87659,1.52,249.9609375,8,5,-9999,1432177872.813049,15.1982421875,-23.0352783203125,47.31295776367188,218.9165191650391,206.3659362792969,10,8208.817082791667,-0.1099700927734375,-0.0726318359375,-0.812255859375,8208.797380791668,-0.1062622580230337,-0.03118321951984681,0.6725102268984064
2015-05-21 13:11:12.889,168,1432177872.488552,-33.88900887689915,151.1931464263715,28.87659,1.52,249.9609375,8,5,-9999,1432177872.852481,14.9217529296875,-23.99983978271484,47.44564819335938,217.5325622558594,204.9819793701172,10,8208.875323791668,-0.0682525634765625,-0.136962890625,-0.7781982421875,8208.863641791668,0.1606432085341247,-0.3409203058887496,0.4608666845409374
2015-05-21 13:11:12.931,169,1432177872.488552,-33.88900887689915,151.1931464263715,28.87659,1.52,249.9609375,8,5,-9999,1432177872.892977,14.67984008789062,-24.79216003417969,47.27978515625,215.4729309082031,202.9223480224609,10,8208.933548791667,-0.0601654052734375,-0.1186370849609375,-0.7870635986328125,8208.929857791667,0.1502859087386975,-0.07586999734694039,0.02560656019722088
2015-05-21 13:11:12.989,170,1432177872.488552,-33.88900887689915,151.1931464263715,28.87659,1.52,249.9609375,8,5,-9999,1432177872.971035,15.19821166992188,-24.41321563720703,47.57833480834961,214.8565216064453,202.3059387207031,10,8208.991778791667,-0.063690185546875,-0.123504638671875,-0.85211181640625,8208.962974791668,0.1931651991339543,0.004644286624989184,-0.003114034262629653
2015-05-21 13:11:13.047,171,1432177872.488552,-33.88900887689915,151.1931464263715,28.87659,1.52,249.9609375,8,5,-9999,1432177873.010049,14.78353881835938,-24.13762664794922,47.31295776367188,214.4617767333984,201.9111938476562,10,8209.050004791667,0.0094146728515625,-0.0835723876953125,-1.257919311523438,8209.029202791668,-0.4867052060691042,0.05214709098873255,-0.2293575583481312
2015-05-21 13:11:13.107,172,1432177872.488552,-33.88900887689915,151.1931464263715,28.87659,1.52,249.9609375,8,5,-9999,1432177873.088598,15.02545166015625,-24.72325134277344,46.61634063720703,215.3337554931641,202.7831726074219,10,8209.108232791667,-0.0502471923828125,0.044952392578125,-1.3848876953125,8209.095445791667,-0.4930059788921226,0.2857585165460473,-0.02258733446939805
2015-05-21 13:11:13.163,173,1432177872.488552,-33.88900887689915,151.1931464263715,28.87659,1.52,249.9609375,8,5,-9999,1432177873.128104,14.6107177734375,-25.34332275390625,47.08074951171875,215.3877105712891,202.8371276855469,10,8209.166456791667,-0.1334381103515625,-0.00238037109375,-1.017013549804688,8209.161695791667,0.04567054953376885,0.198564491927981,-0.02770220165900424
2015-05-21 13:11:13.222,174,1432177872.488552,-33.88900887689915,151.1931464263715,28.87659,1.52,249.9609375,8,5,-9999,1432177873.207506,13.98861694335938,-26.51456451416016,47.014404296875,215.3404235839844,202.7898406982422,10,8209.224687791668,0.0131072998046875,0.1752166748046875,-1.275787353515625,8209.227922791668,-0.8756079516339204,0.102474177688505,0.1063924866003385
2015-05-21 13:11:13.287,175,1432177872.488552,-33.88900887689915,151.1931464263715,28.87659,1.52,249.9609375,8,5,-9999,1432177873.246238,13.91949462890625,-27.61692047119141,46.21826934814453,215.7657623291016,203.2151794433594,10,8209.282885791667,-0.116302490234375,-0.0158233642578125,-0.8353271484375,8209.261033791667,0.02229518569781636,0.03274702771194134,0.2656085071062897
2015-05-21 13:11:13.338,176,1432177872.488552,-33.88900887689915,151.1931464263715,28.87659,1.52,249.9609375,8,5,-9999,1432177873.324956,12.91726684570312,-28.54702758789062,45.25627517700195,214.0039367675781,201.4533538818359,10,8209.341111791668,-0.012359619140625,-0.13824462890625,-0.6818389892578125,8209.327287791668,0.3179398888424558,0.1777545511701018,0.1730657897549083
2015-05-21 13:11:13.396,177,1432177872.488552,-33.88900887689915,151.1931464263715,28.87659,1.52,249.9609375,8,5,-9999,1432177873.362554,12.46798706054688,-28.92596435546875,45.35579299926758,213.2318420410156,200.6812591552734,10,8209.399340791668,0.0197296142578125,-0.1234130859375,-0.739990234375,8209.393529791667,0.2074658415554618,0.0458401928952069,0.04324281188405262
2015-05-21 13:11:13.455,178,1432177872.488552,-33.88900887689915,151.1931464263715,28.87659,1.52,249.9609375,8,5,-9999,1432177873.441299,11.88046264648438,-28.13365936279297,46.05241012573242,212.7530364990234,200.2024536132812,10,8209.457564791666,0.0348052978515625,-0.0374755859375,-1.102798461914062,8209.459760791668,0.07086218923315539,0.1087384652045893,0.2919748671625103
2015-05-21 13:11:13.526,179,1432177873.479694,-33.88901264875558,151.1931328476883,27.74066,1.32,249.9609375,8,5,-9999,1432177873.51995,10.63632202148438,-27.65139007568359,46.45047378540039,211.7501525878906,199.1995697021484,10,8209.515795791667,0.111602783203125,-0.0583953857421875,-1.264419555664062,8209.492869791668,0.213051555625794,0.1883025332995787,0.3247751580962532
2015-05-21 13:11:13.572,180,1432177873.479694,-33.88901264875558,151.1931328476883,27.74066,1.32,249.9609375,8,5,-9999,1432177873.559863,10.35986328125,-28.13365936279297,46.64950942993164,211.2706909179688,198.7201080322266,10,8209.574013791667,0.077880859375,0.07000732421875,-1.412399291992188,8209.559099791668,-0.1125973856241142,0.0467477981947059,0.3832983893668535
2015-05-21 13:11:13.629,181,1432177873.479694,-33.88901264875558,151.1931328476883,27.74066,1.32,249.9609375,8,5,-9999,1432177873.598797,10.11795043945312,-28.16812133789062,47.014404296875,210.8927001953125,198.3421173095703,10,8209.632250791667,0.0919952392578125,0.0299530029296875,-1.110305786132812,8209.625352791667,0.3848920249631569,-0.4442219277279421,0.3265142022880749
2015-05-21 13:11:13.687,182,1432177873.479694,-33.88901264875558,151.1931328476883,27.74066,1.32,249.9609375,8,5,-9999,1432177873.679207,9.253936767578125,-27.72029876708984,47.18026351928711,208.1399078369141,195.5893249511719,10,8209.690477791668,0.1285247802734375,0.1337890625,-1.162429809570312,8209.658464791668,-0.5602646448542918,-0.1845219098161022,0.0964058988286504
2015-05-21 13:11:13.747,183,1432177873.479694,-33.88901264875558,151.1931328476883,27.74066,1.32,249.9609375,8,5,-9999,1432177873.717725,8.77008056640625,-28.61595153808594,46.64950561523438,207.3066101074219,194.7560272216797,10,8209.748704791667,-0.002685546875,0.012054443359375,-0.7616119384765625,8209.724717791667,0.1260756439010052,-0.0114808874593316,0.5648468798258821
2015-05-21 13:11:13.804,184,1432177873.479694,-33.88901264875558,151.1931328476883,27.74066,1.32,249.9609375,8,5,-9999,1432177873.795571,7.525909423828125,-28.06479644775391,46.25144195556641,205.6149749755859,193.0643920898438,10,8209.806932791667,-0.0361480712890625,-0.0509796142578125,-0.7659454345703125,8209.790941791667,0.3891592079777908,-0.03418140627505802,0.6382830142525991
2015-05-21 13:11:13.862,185,1432177873.479694,-33.88901264875558,151.1931328476883,27.74066,1.32,249.9609375,8,5,-9999,1432177873.835926,7.00750732421875,-27.61695861816406,46.61634063720703,204.6419219970703,192.0913391113281,10,8209.865160791667,-0.024749755859375,-0.093017578125,-0.7375030517578125,8209.857164791667,0.3237703474169663,0.04453151553554197,0.2626537298768469
2015-05-21 13:11:13.926,186,1432177873.479694,-33.88901264875558,151.1931328476883,27.74066,1.32,249.9609375,8,5,-9999,1432177873.914125,6.558197021484375,-26.89354705810547,46.78219985961914,204.6804809570312,192.1298980712891,10,8209.923418791666,0.02935791015625,-0.0492401123046875,-1.003616333007812,8209.923417791668,-0.07491552041225599,-0.04776006572504503,-0.1548020973152539
2015-05-21 13:11:13.978,187,1432177873.479694,-33.88901264875558,151.1931328476883,27.74066,1.32,249.9609375,8,5,-9999,1432177873.953095,6.419952392578125,-26.61796569824219,46.71585845947266,204.9166259765625,192.3660430908203,10,8209.981646791668,0.095794677734375,-0.0826416015625,-1.324630737304688,8209.956529791667,-0.4147971934758746,0.1555259444995374,-0.03662858500073183
2015-05-21 13:11:14.037,188,1432177873.479694,-33.88901264875558,151.1931328476883,27.74066,1.32,249.9609375,8,5,-9999,1432177874.031648,5.00299072265625,-27.75476837158203,46.35095596313477,204.0052032470703,191.4546203613281,10,8210.039872791667,0.02581787109375,0.078033447265625,-1.455764770507812,8210.022783791666,-0.595964052950695,0.4874279879889516,0.05529840950662332
2015-05-21 13:11:14.095,189,1432177873.479694,-33.88901264875558,151.1931328476883,27.74066,1.32,249.9609375,8,5,-9999,1432177874.071159,4.03533935546875,-28.09925079345703,46.21826934814453,203.7160034179688,191.1654205322266,10,8210.098100791667,-0.068450927734375,0.0014495849609375,-0.9163818359375,8210.089006791668,0.5995710383310983,0.06387591874555053,0.09575635383878008
2015-05-21 13:11:14.165,190,1432177873.479694,-33.88901264875558,151.1931328476883,27.74066,1.32,249.9609375,8,5,-9999,1432177874.151667,3.82794189453125,-28.37484741210938,46.48364639282227,203.032958984375,190.4823760986328,10,8210.156328791667,0.0033416748046875,0.057037353515625,-1.000198364257812,8210.122117791667,-0.4250831205540877,-0.3979076921587011,-0.1373804964122825
2015-05-21 13:11:14.211,191,1432177873.479694,-33.88901264875558,151.1931328476883,27.74066,1.32,249.9609375,8,5,-9999,1432177874.18911,4.484588623046875,-29.09825897216797,46.18509674072266,203.1298217773438,190.5792388916016,10,8210.214563791667,-0.0333709716796875,-0.02606201171875,-0.7813262939453125,8210.188371791668,-0.2376658220008514,-0.1132389411307143,0.1838220310816293
2015-05-21 13:11:14.270,192,1432177873.479694,-33.88901264875558,151.1931328476883,27.74066,1.32,249.9609375,8,5,-9999,1432177874.228613,4.000701904296875,-30.33840179443359,45.0572395324707,201.9865570068359,189.4359741210938,10,8210.272783791666,0.0607452392578125,-0.131561279296875,-0.705047607421875,8210.254594791668,0.08554978896105141,0.1905217454359417,0.2708783702713385
2015-05-21 13:11:14.328,193,1432177874.274564,-33.88901650443104,151.1931201910145,27.74017,1.32,249.9609375,8,5,-9999,1432177874.30736,2.6873779296875,-30.20061492919922,44.79186248779297,200.5916595458984,188.0410766601562,10,8210.331022791666,0.0663909912109375,-0.1135711669921875,-0.8667755126953125,8210.320829791666,0.08222083759845235,0.04579172336336746,0.2368245294124953
2015-05-21 13:11:14.388,194,1432177874.274564,-33.88901650443104,151.1931201910145,27.74017,1.32,249.9609375,8,5,-9999,1432177874.384603,1.8233642578125,-30.02837371826172,44.62599945068359,199.5832214355469,187.0326385498047,10,8210.389269791667,0.0604248046875,-0.01287841796875,-1.183944702148438,8210.387071791667,0.1155716039295147,0.1435015058617207,0.488748915889631
2015-05-21 13:11:14.445,195,1432177874.274564,-33.88901650443104,151.1931201910145,27.74017,1.32,249.9609375,8,5,-9999,1432177874.424055,0.9593505859375,-29.92502593994141,44.52648544311523,198.5663604736328,186.0157775878906,10,8210.447497791667,0.131866455078125,-0.037261962890625,-1.254852294921875,8210.453294791667,-0.1294362868805762,-0.004102333343158059,0.333305263067777
2015-05-21 13:11:14.503,196,1432177874.274564,-33.88901650443104,151.1931201910145,27.74017,1.32,249.9609375,8,5,-9999,1432177874.463436,0.19903564453125,-29.7872314453125,44.72551727294922,197.8748779296875,185.3242950439453,10,8210.505754791668,0.2019805908203125,0.2096405029296875,-1.507568359375,8210.486425791667,-0.8634183970085186,0.02322010154440088,0.3747203474957082
2015-05-21 13:11:14.566,197,1432177874.274564,-33.88901650443104,151.1931201910145,27.74017,1.32,249.9609375,8,5,-9999,1432177874.54236,-1.632659912109375,-30.57954406738281,44.69235229492188,195.1393737792969,182.5887908935547,10,8210.563981791667,0.032623291015625,-0.0743408203125,-0.8550262451171875,8210.552647791666,0.5849185923295913,-0.5632519126490337,0.3970355069017002
2015-05-21 13:11:14.620,198,1432177874.274564,-33.88901650443104,151.1931201910145,27.74017,1.32,249.9609375,8,5,-9999,1432177874.581652,-1.356170654296875,-30.23505401611328,45.09041595458984,194.20361328125,181.6530303955078,10,8210.622204791667,0.137054443359375,0.102874755859375,-1.05047607421875,8210.618913791666,-0.7837011971508498,-0.1364800816477268,0.03724776995417525
2015-05-21 13:11:14.677,199,1432177874.274564,-33.88901650443104,151.1931201910145,27.74017,1.32,249.9609375,8,5,-9999,1432177874.660261,-0.18115234375,-31.75078582763672,43.89621734619141,194.2484130859375,181.6978302001953,10,8210.680436791667,0.0303497314453125,0.055450439453125,-0.7872772216796875,8210.685136791668,0.123280922653076,-0.22696603968924,0.1461723901189611
2015-05-21 13:11:14.736,200,1432177874.274564,-33.88901650443104,151.1931201910145,27.74017,1.32,249.9609375,8,5,-9999,1432177874.699556,0.129913330078125,-31.85413360595703,43.39862823486328,194.0064849853516,181.4559020996094,10,8210.738692791667,0.0381317138671875,0.0106353759765625,-0.825592041015625,8210.718266791668,0.2715100720819054,-0.1681615786075274,0.3492528043073895
2015-05-21 13:11:14.806,201,1432177874.274564,-33.88901650443104,151.1931201910145,27.74017,1.32,249.9609375,8,5,-9999,1432177874.778152,-0.112030029296875,-31.19962310791016,44.62600326538086,192.6185302734375,180.0679473876953,10,8210.796922791667,-0.0269317626953125,-0.0986785888671875,-0.808624267578125,8210.784501791668,0.7825778758030544,-0.2533529060858541,0.04422178990076575
2015-05-21 13:11:14.852,202,1432177874.274564,-33.88901650443104,151.1931201910145,27.74017,1.32,249.9609375,8,5,-9999,1432177874.818782,-0.768646240234375,-30.13172912597656,45.18993377685547,191.0189361572266,178.4683532714844,10,8210.855175791667,-0.0044403076171875,0.016815185546875,-1.172073364257812,8210.850725791666,-0.2499645662309463,0.001124120296122446,-0.273244056267656
2015-05-21 13:11:14.910,203,1432177874.274564,-33.88901650443104,151.1931201910145,27.74017,1.32,249.9609375,8,5,-9999,1432177874.896368,0.579193115234375,-29.13272857666016,44.89138031005859,192.5892639160156,180.0386810302734,10,8210.913408791666,-0.0402069091796875,0.0569305419921875,-1.407150268554688,8210.916978791667,0.1379024759859381,0.1183538083203204,-0.3654176594919524
2015-05-21 13:11:14.969,204,1432177874.274564,-33.88901650443104,151.1931201910145,27.74017,1.32,249.9609375,8,5,-9999,1432177874.935762,1.0284423828125,-29.85614013671875,44.32745361328125,193.9429931640625,181.3924102783203,10,8210.971635791668,-0.006683349609375,0.089630126953125,-1.174652099609375,8210.950090791666,0.361975257466916,0.5737634094715764,-0.09506659511644956
2015-05-21 13:11:15.028,205,1432177874.274564,-33.88901650443104,151.1931201910145,27.74017,1.32,249.9609375,8,5,-9999,1432177875.014511,-0.97601318359375,-29.51166534423828,44.92455291748047,193.1216888427734,180.5711059570312,10,8211.029893791667,-0.00360107421875,0.08221435546875,-0.802490234375,8211.016313791668,0.2055100160509076,-0.04899044614866163,-0.3388664760560804
2015-05-21 13:11:15.085,206,1432177874.274564,-33.88901650443104,151.1931201910145,27.74017,1.32,249.9609375,8,5,-9999,1432177875.053847,-0.6995849609375,-29.16719055175781,45.45530700683594,193.7124176025391,181.1618347167969,10,8211.088121791667,-0.01251220703125,0.01922607421875,-0.911285400390625,8211.082567791667,-0.3764447443015345,-0.2800273938801968,0.06045402306090771
2015-05-21 13:11:15.143,207,1432177874.274564,-33.88901650443104,151.1931201910145,27.74017,1.32,249.9609375,8,5,-9999,1432177875.132828,0.4754638671875,-30.47623443603516,44.52648544311523,194.2750854492188,181.7245025634766,10,8211.146348791668,-0.0023651123046875,-0.037872314453125,-0.80255126953125,8211.148790791667,-0.1507301240085227,-0.0133464318029321,-0.04016925766999217
2015-05-21 13:11:15.207,208,1432177874.274564,-33.88901650443104,151.1931201910145,27.74017,1.32,249.9609375,8,5,-9999,1432177875.172188,1.0975341796875,-31.16519165039062,44.72551727294922,194.9810180664062,182.4304351806641,10,8211.204606791667,0.0269622802734375,-0.196014404296875,-0.719512939453125,8211.181901791668,0.3460346404461377,0.04120229785683391,0.09703547011034513
2015-05-21 13:11:15.260,209,1432177874.274564,-33.88901650443104,151.1931201910145,27.74017,1.32,249.9609375,8,5,-9999,1432177875.251071,0.786468505859375,-30.64847564697266,44.89138031005859,194.8648834228516,182.3143005371094,10,8211.262838791667,0.0526123046875,-0.1528778076171875,-0.962493896484375,8211.248155791667,0.04423404044178011,0.08730667633217667,-0.1083842647796088
2015-05-21 13:11:15.318,210,1432177874.274564,-33.88901650443104,151.1931201910145,27.74017,1.32,249.9609375,8,5,-9999,1432177875.290052,-0.077545166015625,-30.13173675537109,44.99089813232422,193.8996734619141,181.3490905761719,10,8211.321093791666,0.0471954345703125,0.03326416015625,-1.506546020507812,8211.314378791667,-0.05196679498293419,0.1250780237566615,-0.04379248833304498
2015-05-21 13:11:15.376,211,1432177874.274564,-33.88901650443104,151.1931201910145,27.74017,1.32,249.9609375,8,5,-9999,1432177875.368607,-1.252593994140625,-29.925048828125,45.1899299621582,193.1101989746094,180.5596160888672,10,8211.379320791668,0.003662109375,-0.0335693359375,-1.243865966796875,8211.380632791666,0.02197667163144288,0.2571708138245917,0.1133412065165733
2015-05-21 13:11:15.447,212,1432177875.395922,-33.88902497015324,151.1931072828837,28.3175,1.51,232.734375,8,5,-9999,1432177875.406461,-1.978363037109375,-29.68391418457031,45.82020568847656,193.0656280517578,180.5150451660156,10,8211.437579791667,0.116607666015625,-0.00347900390625,-1.114303588867188,8211.413743791667,0.4568602249970222,0.2329435047559229,0.1532500070319557
2015-05-21 13:11:15.493,213,1432177875.395922,-33.88902497015324,151.1931072828837,28.3175,1.51,232.734375,8,5,-9999,1432177875.485132,-1.736419677734375,-27.44477081298828,46.64950942993164,193.3359527587891,180.7853698730469,10,8211.495805791666,0.12371826171875,0.0848541259765625,-0.9849700927734375,8211.479966791667,-0.3754204925462901,-0.5310918456413458,-0.2552839641922706
2015-05-21 13:11:15.552,214,1432177875.395922,-33.88902497015324,151.1931072828837,28.3175,1.51,232.734375,8,5,-9999,1432177875.525392,-1.218017578125,-27.41031646728516,46.81536865234375,193.3211822509766,180.7705993652344,10,8211.554063791667,0.00750732421875,0.0139312744140625,-0.8185577392578125,8211.546220791668,0.1870255475568857,-0.1823695430231001,0.3819534930163634
2015-05-21 13:11:15.609,215,1432177875.395922,-33.88902497015324,151.1931072828837,28.3175,1.51,232.734375,8,5,-9999,1432177875.603101,-0.8724365234375,-28.23707580566406,47.41247177124023,192.8840026855469,180.3334197998047,10,8211.612292791668,0.036102294921875,-0.0493927001953125,-0.7559814453125,8211.612443791668,0.1244804104080477,-0.2125391634320628,0.1412378189351533
2015-05-21 13:11:15.687,216,1432177875.395922,-33.88902497015324,151.1931072828837,28.3175,1.51,232.734375,8,5,-9999,1432177875.681863,-1.01068115234375,-27.68590545654297,47.94322967529297,191.5208129882812,178.9702301025391,10,8211.670545791667,0.018310546875,-0.141876220703125,-0.72955322265625,8211.645582791667,0.443140418009261,-0.1172818859815635,0.2066016457817311
2015-05-21 13:11:15.726,217,1432177875.395922,-33.88902497015324,151.1931072828837,28.3175,1.51,232.734375,8,5,-9999,1432177875.72143,-1.14892578125,-27.54811096191406,48.40764236450195,190.7733917236328,178.2228088378906,10,8211.728776791668,0.03582763671875,-0.1359405517578125,-1.000564575195312,8211.711809791666,-0.05712427274998164,-0.02349094502726193,-0.119480591777533
2015-05-21 13:11:15.784,218,1432177875.395922,-33.88902497015324,151.1931072828837,28.3175,1.51,232.734375,8,5,-9999,1432177875.76071,-0.907012939453125,-27.51366424560547,48.04274749755859,191.1620178222656,178.6114349365234,10,8211.786999791668,0.0577239990234375,0.0280914306640625,-1.302474975585938,8211.778032791668,-0.4920360556231158,-0.06399895678791219,-0.3234718070587684
2015-05-21 13:11:15.849,219,1432177875.395922,-33.88902497015324,151.1931072828837,28.3175,1.51,232.734375,8,5,-9999,1432177875.839231,-0.112152099609375,-28.65046691894531,47.34613037109375,192.8062286376953,180.2556457519531,10,8211.845263791667,-0.0520782470703125,-0.01629638671875,-1.328857421875,8211.811166791667,-0.3443035857375862,0.1158949116858503,-0.004173706060372182
2015-05-21 13:11:15.900,220,1432177875.395922,-33.88902497015324,151.1931072828837,28.3175,1.51,232.734375,8,5,-9999,1432177875.878524,-0.42315673828125,-29.58056640625,46.78220367431641,193.114013671875,180.5634307861328,10,8211.903489791666,-0.1079559326171875,-0.0021514892578125,-1.14892578125,8211.877397791668,-0.1668358570168859,0.5018647179421623,0.1160333960625344
2015-05-21 13:11:15.959,221,1432177875.395922,-33.88902497015324,151.1931072828837,28.3175,1.51,232.734375,8,5,-9999,1432177875.957483,-0.699676513671875,-30.82070922851562,46.91489028930664,192.3486328125,179.7980499267578,10,8211.961716791668,0.0357513427734375,0.0728912353515625,-1.04754638671875,8211.943646791668,-0.2660567171177501,-0.4034340177367245,-0.4648331966685014
2015-05-21 13:11:16.018,222,1432177875.395922,-33.88902497015324,151.1931072828837,28.3175,1.51,232.734375,8,5,-9999,1432177875.996916,-0.008514404296875,-30.82070922851562,47.31295776367188,192.7818756103516,180.2312927246094,10,8212.019953791667,-0.05615234375,0.051177978515625,-0.8138580322265625,8212.009859791668,0.1550534997221574,-0.4487074899519626,-0.08904438894345337
2015-05-21 13:11:16.086,223,1432177875.395922,-33.88902497015324,151.1931072828837,28.3175,1.51,232.734375,8,5,-9999,1432177876.076111,1.6158447265625,-30.44178009033203,47.41247177124023,193.3797912597656,180.8292083740234,10,8212.078204791667,0.01983642578125,-0.01861572265625,-0.8182373046875,8212.076097791667,0.4459194266067587,-0.06902886913874484,0.2199787039371991
2015-05-21 13:11:16.133,224,1432177875.395922,-33.88902497015324,151.1931072828837,28.3175,1.51,232.734375,8,5,-9999,1432177876.115028,2.03057861328125,-29.27053070068359,47.81053924560547,193.9194488525391,181.3688659667969,10,8212.136430791666,-0.0453338623046875,-0.141510009765625,-0.7223052978515625,8212.142351791666,0.335290383344322,0.08706459498908847,0.1117731372667346
2015-05-21 13:11:16.191,225,1432177875.395922,-33.88902497015324,151.1931072828837,28.3175,1.51,232.734375,8,5,-9999,1432177876.154346,1.3048095703125,-28.27153015136719,47.97640228271484,192.2583618164062,179.7077789306641,10,8212.194659791667,-0.0193634033203125,-0.098785400390625,-0.9614410400390625,8212.175448791668,0.3013854131904142,0.1558934607299684,0.1377285715667559
2015-05-21 13:11:16.250,226,1432177875.395922,-33.88902497015324,151.1931072828837,28.3175,1.51,232.734375,8,5,-9999,1432177876.233119,0.47540283203125,-27.92704010009766,48.17543792724609,191.4734344482422,178.9228515625,10,8212.252886791668,0.005340576171875,-0.0313262939453125,-1.370132446289062,8212.241680791667,0.2199930850070856,0.07333706483416604,0.2280890947209264
2015-05-21 13:11:16.326,227,1432177875.395922,-33.88902497015324,151.1931072828837,28.3175,1.51,232.734375,8,5,-9999,1432177876.311878,-0.00848388671875,-26.13573455810547,48.24177932739258,190.8152313232422,178.2646484375,10,8212.311143791667,-0.07330322265625,0.02899169921875,-1.296188354492188,8212.307939791666,-0.3417919585135325,-0.290554603353171,-0.09792256906945053
2015-05-21 13:11:16.366,228,1432177875.395922,-33.88902497015324,151.1931072828837,28.3175,1.51,232.734375,8,5,-9999,1432177876.349704,-0.146728515625,-25.65346527099609,48.17543029785156,190.03271484375,177.4821319580078,10,8212.369401791668,0.003143310546875,-0.0529327392578125,-1.089157104492188,8212.374162791668,0.58850533768571,-0.3363423319749033,0.2594291744289789
2015-05-21 13:11:16.425,229,1432177875.395922,-33.88902497015324,151.1931072828837,28.3175,1.51,232.734375,8,5,-9999,1432177876.389017,0.0606689453125,-24.68889617919922,48.8388786315918,189.9053649902344,177.3547821044922,10,8212.427617791667,0.01849365234375,-0.0883026123046875,-0.9884796142578125,8212.407293791668,-0.41376761539845,-0.3597922643213781,-0.2147384018602502
2015-05-21 13:11:16.487,230,1432177875.395922,-33.88902497015324,151.1931072828837,28.3175,1.51,232.734375,8,5,-9999,1432177876.468366,0.26800537109375,-24.62001037597656,49.43598175048828,188.6888885498047,176.1383056640625,10,8212.485856791667,-0.039703369140625,-0.0672149658203125,-0.80255126953125,8212.473527791668,-0.1862138160566295,-0.1484856118418039,-0.08740201749920151
2015-05-21 13:11:16.541,231,1432177875.395922,-33.88902497015324,151.1931072828837,28.3175,1.51,232.734375,8,5,-9999,1432177876.507384,1.684967041015625,-25.41233825683594,49.07108306884766,190.4308776855469,177.8802947998047,10,8212.544090791667,0.0322723388671875,-0.069549560546875,-0.773223876953125,8212.539750791668,0.1986856657575796,-0.01077275292547953,0.04218926535681727
2015-05-21 13:11:16.599,232,1432177876.573337,-33.8890385907459,151.1930988171615,28.30811,1.43,192.3046875,8,5,-9999,1432177876.585931,1.581268310546875,-25.58457183837891,48.70619201660156,190.5500183105469,177.9994354248047,10,8212.602342791668,0.0047607421875,-0.11798095703125,-0.8196563720703125,8212.606004791667,0.1657996210367361,-0.01805490061019219,-0.1939492337588737
2015-05-21 13:11:16.657,233,1432177876.573337,-33.8890385907459,151.1930988171615,28.30811,1.43,192.3046875,8,5,-9999,1432177876.625325,1.44305419921875,-25.44677734375,48.9715690612793,190.4629821777344,177.9123992919922,10,8212.660570791668,0.0099945068359375,-0.1436920166015625,-1.022811889648438,8212.639116791666,0.2058210732662289,0.005023787080325475,-0.1527163095495038
2015-05-21 13:11:16.726,234,1432177876.573337,-33.8890385907459,151.1930988171615,28.30811,1.43,192.3046875,8,5,-9999,1432177876.704169,1.857757568359375,-24.62001037597656,49.30329132080078,191.6772613525391,179.1266784667969,10,8212.718828791667,-0.001556396484375,-0.0823211669921875,-1.276901245117188,8212.705347791667,-0.1731086666484586,0.0332935083676256,-0.3267267225430632
2015-05-21 13:11:16.774,235,1432177876.573337,-33.8890385907459,151.1930988171615,28.30811,1.43,192.3046875,8,5,-9999,1432177876.743482,2.065155029296875,-24.41332244873047,49.03791046142578,192.2257232666016,179.6751403808594,10,8212.777055791666,-0.126434326171875,-0.0065765380859375,-1.316787719726562,8212.771592791667,-0.5370016664163406,0.238762511737746,-0.2536562401340142
2015-05-21 13:11:16.832,236,1432177876.573337,-33.8890385907459,151.1930988171615,28.30811,1.43,192.3046875,8,5,-9999,1432177876.822178,0.786407470703125,-24.72335815429688,48.87205505371094,191.6288299560547,179.0782470703125,10,8212.835283791666,-0.166748046875,0.0288238525390625,-0.9546966552734375,8212.837816791667,-0.1357993776731025,-0.07390032340471779,-0.5401175648917333
2015-05-21 13:11:16.891,237,1432177876.573337,-33.8890385907459,151.1930988171615,28.30811,1.43,192.3046875,8,5,-9999,1432177876.862643,1.097442626953125,-25.44676971435547,48.83888244628906,192.8307952880859,180.2802124023438,10,8212.893541791667,-0.003082275390625,0.0605926513671875,-1.045578002929688,8212.870958791667,-0.6227232292677022,-0.1980313270777471,-0.4028601065218125
2015-05-21 13:11:16.966,238,1432177876.573337,-33.8890385907459,151.1930988171615,28.30811,1.43,192.3046875,8,5,-9999,1432177876.940307,2.65264892578125,-26.72136688232422,48.00957489013672,194.2289276123047,181.6783447265625,10,8212.951777791668,-0.1052398681640625,-0.0282440185546875,-0.7489471435546875,8212.937181791667,-0.1852308432982813,-0.1570050641689675,-0.1033266555534393
2015-05-21 13:11:17.007,239,1432177876.573337,-33.8890385907459,151.1930988171615,28.30811,1.43,192.3046875,8,5,-9999,1432177876.979691,2.894561767578125,-27.65146636962891,47.31295776367188,194.2870330810547,181.7364501953125,10,8213.009996791667,-0.0058441162109375,-0.0915985107421875,-0.74603271484375,8213.003434791668,-0.005593703553602432,0.04452325973616272,-0.2303570427052379
2015-05-21 13:11:17.065,240,1432177876.573337,-33.8890385907459,151.1930988171615,28.30811,1.43,192.3046875,8,5,-9999,1432177877.058313,2.860015869140625,-27.27252960205078,47.27978134155273,194.7583618164062,182.2077789306641,10,8213.068223791668,0.0698089599609375,-0.0808563232421875,-0.8747406005859375,8213.069661791667,0.07440552506350583,0.1785060952297222,-0.1676281474411845
2015-05-21 13:11:17.127,241,1432177876.573337,-33.8890385907459,151.1930988171615,28.30811,1.43,192.3046875,8,5,-9999,1432177877.097806,2.44525146484375,-27.82370758056641,46.74902725219727,194.6742248535156,182.1236419677734,10,8213.126481791667,-0.02496337890625,-0.06353759765625,-1.115737915039062,8213.102769791667,0.09552066408230807,0.1771063377607765,0.02085414923197448
2015-05-21 13:11:17.182,242,1432177876.573337,-33.8890385907459,151.1930988171615,28.30811,1.43,192.3046875,8,5,-9999,1432177877.176267,1.926849365234375,-27.58257293701172,46.98123168945312,195.5071105957031,182.9565277099609,10,8213.184710791667,0.011871337890625,-0.05938720703125,-1.26617431640625,8213.169000791668,0.2936116459684729,0.2038820256765422,0.1009742853625723
2015-05-21 13:11:17.240,243,1432177876.573337,-33.8890385907459,151.1930988171615,28.30811,1.43,192.3046875,8,5,-9999,1432177877.215938,1.201080322265625,-27.27252960205078,46.94805908203125,195.3973388671875,182.8467559814453,10,8213.242936791667,-0.045501708984375,-0.02581787109375,-1.36468505859375,8213.235246791668,-0.1883912165638783,-0.0006210491662064783,0.07902584323868429
2015-05-21 13:11:17.298,244,1432177876.573337,-33.8890385907459,151.1930988171615,28.30811,1.43,192.3046875,8,5,-9999,1432177877.294712,0.85546875,-26.03239440917969,47.34612655639648,195.0352935791016,182.4847106933594,10,8213.301194791668,0.00628662109375,-0.001068115234375,-1.063796997070312,8213.301500791667,0.4320398299535927,-0.2953387059353894,-0.1973460957292697
2015-05-21 13:11:17.367,245,1432177876.573337,-33.8890385907459,151.1930988171615,28.30811,1.43,192.3046875,8,5,-9999,1432177877.334351,1.131988525390625,-25.06783294677734,47.87688446044922,194.9874420166016,182.4368591308594,10,8213.359423791668,0.0685577392578125,0.0671234130859375,-1.039535522460938,8213.334611791668,-0.2030623046930158,-0.348296196843833,-0.2841963062506068
2015-05-21 13:11:17.415,246,1432177876.573337,-33.8890385907459,151.1930988171615,28.30811,1.43,192.3046875,8,5,-9999,1432177877.411214,2.2724609375,-25.92903900146484,47.24661254882812,196.0604553222656,183.5098724365234,10,8213.417658125001,-0.0455322265625,-0.0221099853515625,-0.8445892333984375,8213.400834791668,-0.08745448177267608,-0.2322023470245538,0.03796229607464351
2015-05-21 13:11:17.473,247,1432177876.573337,-33.8890385907459,151.1930988171615,28.30811,1.43,192.3046875,8,5,-9999,1432177877.450317,2.2724609375,-26.48020935058594,47.24661254882812,195.473388671875,182.9228057861328,10,8213.475908125001,-0.0308990478515625,-0.0979461669921875,-0.7621612548828125,8213.467096125001,0.2288225292851342,-0.2269071838291493,-0.04844263391243234
2015-05-21 13:11:17.531,248,1432177877.475019,-33.8890539296287,151.1930958834953,29.58527,1.29,192.3046875,8,5,-9999,1432177877.529195,2.89453125,-25.65345764160156,47.31295394897461,195.4617309570312,182.9111480712891,10,8213.534144125,-0.0008697509765625,-0.112335205078125,-0.7624053955078125,8213.500208125,0.3828954530939245,-0.1828859299584665,-0.1259749764118002
2015-05-21 13:11:17.607,249,1432177877.475019,-33.8890539296287,151.1930958834953,29.58527,1.29,192.3046875,8,5,-9999,1432177877.568554,3.343841552734375,-24.79224395751953,47.34612655639648,195.6245727539062,183.0739898681641,10,8213.592356125,0.028961181640625,-0.0941314697265625,-1.0201416015625,8213.599572125,0.1027258464115174,-0.17382772014278,-0.2739631097619774
2015-05-21 13:11:17.648,250,1432177877.475019,-33.8890539296287,151.1930958834953,29.58527,1.29,192.3046875,8,5,-9999,1432177877.607794,4.069549560546875,-24.55110168457031,47.44564437866211,196.5473785400391,183.9967956542969,10,8213.650613125001,-0.00030517578125,-0.0750732421875,-1.232498168945312,8213.632684125001,-0.06709275102625724,-0.04566469057937068,-0.2112422039811942
2015-05-21 13:11:17.706,251,1432177877.475019,-33.8890539296287,151.1930958834953,29.58527,1.29,192.3046875,8,5,-9999,1432177877.687712,5.002716064453125,-25.41231536865234,47.54515838623047,198.1423797607422,185.591796875,10,8213.708826125001,-0.154632568359375,-0.0073394775390625,-1.28070068359375,8213.698901125001,-0.3760359490742073,0.007029147381155142,-0.3136828258399642
2015-05-21 13:11:17.767,252,1432177877.475019,-33.8890539296287,151.1930958834953,29.58527,1.29,192.3046875,8,5,-9999,1432177877.765651,3.240142822265625,-25.92904663085938,47.91005706787109,196.7152862548828,184.1647033691406,10,8213.767085125,-0.150909423828125,0.013092041015625,-1.08612060546875,8213.765167125001,0.3718334808740623,0.135278463363883,-0.09817104199915493
2015-05-21 13:11:17.822,253,1432177877.475019,-33.8890539296287,151.1930958834953,29.58527,1.29,192.3046875,8,5,-9999,1432177877.804732,2.929107666015625,-25.89459991455078,47.67785263061523,196.8294219970703,184.2788391113281,10,8213.825312125,-0.094146728515625,0.0650634765625,-0.9798431396484375,8213.831384125,-0.3374371574990349,-0.2118320941626467,-0.2402118040029671
2015-05-21 13:11:17.880,254,1432177877.475019,-33.8890539296287,151.1930958834953,29.58527,1.29,192.3046875,8,5,-9999,1432177877.844124,3.896759033203125,-25.82570648193359,47.21343994140625,197.3178100585938,184.7672271728516,10,8213.883539125001,-0.125518798828125,-0.027313232421875,-0.911468505859375,8213.864496125001,-0.2192729662483281,-0.2506769618225425,-0.05629363280598593
2015-05-21 13:11:17.944,255,1432177877.475019,-33.8890539296287,151.1930958834953,29.58527,1.29,192.3046875,8,5,-9999,1432177877.922696,4.76080322265625,-26.48020935058594,47.31295394897461,197.1985015869141,184.6479187011719,10,8213.941766125001,-0.0216522216796875,-0.165557861328125,-0.7578582763671875,8213.930733125,-0.02940476054389189,0.1687927477858762,-0.1972329113829414
2015-05-21 13:11:18.009,256,1432177877.475019,-33.8890539296287,151.1930958834953,29.58527,1.29,192.3046875,8,5,-9999,1432177878.002969,4.00048828125,-26.89359283447266,46.31778717041016,196.9285888671875,184.3780059814453,10,8213.999994125001,0.011444091796875,-0.176727294921875,-0.707550048828125,8213.996973125,0.2190141069903724,0.1752778113563281,-0.2964561683287866
2015-05-21 13:11:18.055,257,1432177877.475019,-33.8890539296287,151.1930958834953,29.58527,1.29,192.3046875,8,5,-9999,1432177878.041371,3.89678955078125,-26.23907470703125,46.28461456298828,197.7131652832031,185.1625823974609,10,8214.058222125001,0.0779266357421875,-0.145965576171875,-0.9318084716796875,8214.063226125001,0.09193631557117042,0.05995441404040885,-0.03651859644771156
2015-05-21 13:11:18.113,258,1432177877.475019,-33.8890539296287,151.1930958834953,29.58527,1.29,192.3046875,8,5,-9999,1432177878.080595,3.89678955078125,-25.55009460449219,46.15192794799805,198.3330078125,185.7824249267578,10,8214.116476125,0.0052337646484375,0.0031585693359375,-1.275558471679688,8214.096352125,-0.1401906639945341,0.1979679438438032,0.05619988953561514
2015-05-21 13:11:18.172,259,1432177877.475019,-33.8890539296287,151.1930958834953,29.58527,1.29,192.3046875,8,5,-9999,1432177878.15966,3.4129638671875,-26.30794525146484,46.41730499267578,198.3564910888672,185.805908203125,10,8214.174708125,-0.0164794921875,0.0611419677734375,-1.319442749023438,8214.162588125,-0.3477462540787317,-0.08375721523131907,0.05129914049765132
2015-05-21 13:11:18.246,260,1432177877.475019,-33.8890539296287,151.1930958834953,29.58527,1.29,192.3046875,8,5,-9999,1432177878.237704,2.89459228515625,-27.65144348144531,45.91972351074219,197.9220733642578,185.3714904785156,10,8214.232951125001,0.0070648193359375,0.018463134765625,-1.20831298828125,8214.228815125001,0.5634095717855664,-0.2491760042321738,0.5572725833695877
2015-05-21 13:11:18.288,261,1432177877.475019,-33.8890539296287,151.1930958834953,29.58527,1.29,192.3046875,8,5,-9999,1432177878.277183,3.067413330078125,-27.20360565185547,45.75386047363281,197.0513458251953,184.5007629394531,10,8214.291163125001,0.048858642578125,0.004730224609375,-0.994476318359375,8214.295038125001,-0.4563044232775226,-0.3874835470199129,0.002584331521812893
2015-05-21 13:11:18.347,262,1432177878.313394,-33.8890671311262,151.1930934527434,26.91583,1.14,192.65625,8,5,-9999,1432177878.317034,3.412994384765625,-27.61698150634766,45.28944778442383,196.2195434570312,183.6689605712891,10,8214.349385125,0.0220489501953125,0.057830810546875,-1.019775390625,8214.328164125,-0.4363741246276966,-0.1566242321330861,0.1502920340092047
2015-05-21 13:11:18.407,263,1432177878.313394,-33.8890671311262,151.1930934527434,26.91583,1.14,192.65625,8,5,-9999,1432177878.396036,3.758575439453125,-28.44374847412109,45.62117004394531,196.4269256591797,183.8763427734375,10,8214.407623125,-0.00445556640625,-0.04791259765625,-0.6910247802734375,8214.394403125001,0.4156680471523306,0.03322053775375743,0.4112541239616332
2015-05-21 13:11:18.463,264,1432177878.313394,-33.8890671311262,151.1930934527434,26.91583,1.14,192.65625,8,5,-9999,1432177878.434781,3.82769775390625,-27.82368469238281,45.42213439941406,196.5142669677734,183.9636840820312,10,8214.465876125001,-0.0467071533203125,-0.119659423828125,-0.7489776611328125,8214.460626125001,0.4020606255625707,-0.0103349292422705,0.1529288298044922
2015-05-21 13:11:18.521,265,1432177878.313394,-33.8890671311262,151.1930934527434,26.91583,1.14,192.65625,8,5,-9999,1432177878.512509,3.44757080078125,-26.68686676025391,46.18510055541992,195.4985809326172,182.947998046875,10,8214.524104125001,-0.04205322265625,-0.102874755859375,-0.9595489501953125,8214.526880125,0.1236598904761943,-0.05543955704439752,-0.2081846287336742
2015-05-21 13:11:18.579,266,1432177878.313394,-33.8890671311262,151.1930934527434,26.91583,1.14,192.65625,8,5,-9999,1432177878.552914,3.965972900390625,-26.65242767333984,46.28461456298828,196.0560455322266,183.5054626464844,10,8214.582331125001,-0.025238037109375,-0.0263519287109375,-1.1790771484375,8214.559992125001,0.1003476435580767,-0.07198604321316883,-0.3745640199397205
2015-05-21 13:11:18.648,267,1432177878.313394,-33.8890671311262,151.1930934527434,26.91583,1.14,192.65625,8,5,-9999,1432177878.63052,3.68951416015625,-26.23904418945312,46.15192413330078,196.0746154785156,183.5240325927734,10,8214.640573125,-0.0162353515625,-0.1792144775390625,-1.300933837890625,8214.626245125,-0.1325641695808742,0.2274446097371273,-0.2808583001403015
2015-05-21 13:11:18.696,268,1432177878.313394,-33.8890671311262,151.1930934527434,26.91583,1.14,192.65625,8,5,-9999,1432177878.670066,3.067413330078125,-26.37683868408203,46.28461456298828,195.6459655761719,183.0953826904297,10,8214.698816125001,-0.0753326416015625,-0.0294189453125,-1.327499389648438,8214.692468125,0.2907671236081593,0.4995333867239068,-0.2437383619184501
2015-05-21 13:11:18.754,269,1432177878.313394,-33.8890671311262,151.1930934527434,26.91583,1.14,192.65625,8,5,-9999,1432177878.748869,2.998260498046875,-26.65242004394531,46.54999542236328,198.0735473632812,185.5229644775391,10,8214.757060125001,-0.145904541015625,0.0789642333984375,-0.8717193603515625,8214.758692125,-0.5539561488641122,0.07526545977949241,-0.6391906195520981
2015-05-21 13:11:18.812,270,1432177878.313394,-33.8890671311262,151.1930934527434,26.91583,1.14,192.65625,8,5,-9999,1432177878.788052,2.618072509765625,-26.8935546875,46.31778717041016,198.2406616210938,185.6900787353516,10,8214.815272125001,0.01171875,0.0881500244140625,-0.9818878173828125,8214.791834125001,-0.7901894565146098,0.2477639962222138,-0.4080332969392914
2015-05-21 13:11:18.888,271,1432177878.313394,-33.8890671311262,151.1930934527434,26.91583,1.14,192.65625,8,5,-9999,1432177878.86671,2.825469970703125,-28.27149200439453,45.25627517700195,199.6808166503906,187.1302337646484,10,8214.873523125001,-0.048004150390625,-0.0937957763671875,-0.7702789306640625,8214.858057125,-0.1818326497473401,-0.1686798297556568,-0.0347289521951783
2015-05-21 13:11:18.929,272,1432177878.313394,-33.8890671311262,151.1930934527434,26.91583,1.14,192.65625,8,5,-9999,1432177878.906204,2.721771240234375,-28.71932220458984,45.22310256958008,199.0783996582031,186.5278167724609,10,8214.931757125001,0.0308990478515625,-0.122894287109375,-0.7934417724609375,8214.924310125001,0.2709127250494006,-0.4764056968693317,-0.07052716356802342
2015-05-21 13:11:18.987,273,1432177878.313394,-33.8890671311262,151.1930934527434,26.91583,1.14,192.65625,8,5,-9999,1432177878.9459,3.343841552734375,-28.85710906982422,45.15675735473633,199.3970642089844,186.8464813232422,10,8214.989984125001,0.0155029296875,-0.15631103515625,-0.8083953857421875,8214.990534125,0.2573598982619874,-0.09039061687448843,0.02948651958935733
2015-05-21 13:11:19.046,274,1432177878.313394,-33.8890671311262,151.1930934527434,26.91583,1.14,192.65625,8,5,-9999,1432177879.024519,4.3460693359375,-27.51361083984375,46.05240631103516,199.3614349365234,186.8108520507812,10,8215.048210125,-0.004058837890625,-0.056427001953125,-1.1058349609375,8215.023645125,0.09429081629090948,0.05053960695476073,-0.2166364367691497
2015-05-21 13:11:19.104,275,1432177878.313394,-33.8890671311262,151.1930934527434,26.91583,1.14,192.65625,8,5,-9999,1432177879.102971,4.7607421875,-27.44471740722656,45.25627899169922,201.0260772705078,188.4754943847656,10,8215.106441125001,0.1842193603515625,0.0277862548828125,-1.396499633789062,8215.089899125,0.02871500182156137,0.2937453366551949,-0.02645664121717418
2015-05-21 13:11:19.162,276,1432177878.313394,-33.8890671311262,151.1930934527434,26.91583,1.14,192.65625,8,5,-9999,1432177879.143301,3.585723876953125,-27.44471740722656,45.3226203918457,200.0459136962891,187.4953308105469,10,8215.164668125,-0.1119384765625,-0.07135009765625,-1.341171264648438,8215.156122125001,-0.3013041867771669,0.3824602925718055,0.2890576405044374
2015-05-21 13:11:19.220,277,1432177878.313394,-33.8890671311262,151.1930934527434,26.91583,1.14,192.65625,8,5,-9999,1432177879.182126,2.54888916015625,-27.37582397460938,45.25627517700195,199.5538330078125,187.0032501220703,10,8215.222925125001,0.0365447998046875,-0.033721923828125,-1.072830200195312,8215.222369125,0.4340736860780862,-0.5354397224370092,-0.2692892620488883
2015-05-21 13:11:19.288,278,1432177879.231801,-33.8890790334287,151.1930915249057,26.59186,1.14,193.0078125,8,5,-9999,1432177879.260539,2.47979736328125,-27.03134155273438,46.05240631103516,198.4076080322266,185.8570251464844,10,8215.281138125001,0.094268798828125,0.1289825439453125,-1.11932373046875,8215.288599125,-0.7764049347123597,0.03314836608821628,-0.001063666539377648
2015-05-21 13:11:19.336,279,1432177879.231801,-33.8890790334287,151.1930915249057,26.59186,1.14,193.0078125,8,5,-9999,1432177879.301206,3.343780517578125,-28.03034210205078,46.15192413330078,199.0756683349609,186.5250854492188,10,8215.339380125,-0.04498291015625,0.03240966796875,-0.8844451904296875,8215.321710125001,0.02411332577401346,0.04668281706410798,0.3917685732138504
2015-05-21 13:11:19.395,280,1432177879.231801,-33.8890790334287,151.1930915249057,26.59186,1.14,193.0078125,8,5,-9999,1432177879.376572,4.00042724609375,-28.61595153808594,45.3226203918457,200.2488555908203,187.6982727050781,10,8215.397608125,-0.0013275146484375,-0.1013946533203125,-0.6916351318359375,8215.387955125001,0.5260523459105889,-0.1378811706972174,0.4177905865411237
2015-05-21 13:11:19.453,281,1432177879.231801,-33.8890790334287,151.1930915249057,26.59186,1.14,193.0078125,8,5,-9999,1432177879.416137,3.585723876953125,-28.20257568359375,44.99089813232422,198.8474426269531,186.2968597412109,10,8215.455835125,-0.046539306640625,-0.1493072509765625,-0.6681060791015625,8215.421076125,0.7253268365851849,-0.3262638651456075,0.361000540507947
2015-05-21 13:11:19.527,282,1432177879.231801,-33.8890790334287,151.1930915249057,26.59186,1.14,193.0078125,8,5,-9999,1432177879.494694,4.138671875,-26.61795043945312,46.31778717041016,197.4774780273438,184.9268951416016,10,8215.514075125,-0.0339508056640625,-0.11187744140625,-1.03668212890625,8215.520441125,0.04246197305244139,-0.3684488694446806,-0.4090807181960195
2015-05-21 13:11:19.569,283,1432177879.231801,-33.8890790334287,151.1930915249057,26.59186,1.14,193.0078125,8,5,-9999,1432177879.534339,4.657073974609375,-26.30791473388672,46.61633682250977,197.6116943359375,185.0611114501953,10,8215.572290125001,-0.045623779296875,-0.0126800537109375,-1.310348510742188,8215.553552125,-0.2334114221594498,-0.1834766190882461,-0.5475765464728273
2015-05-21 13:11:19.627,284,1432177879.231801,-33.8890790334287,151.1930915249057,26.59186,1.14,193.0078125,8,5,-9999,1432177879.612822,6.38507080078125,-26.30791473388672,46.74903106689453,199.7035675048828,187.1529846191406,10,8215.630549125,-0.1856231689453125,0.04730224609375,-1.38177490234375,8215.619784125001,-0.3212680412567278,0.3566617184599899,-0.2485858477346123
2015-05-21 13:11:19.686,285,1432177879.231801,-33.8890790334287,151.1930915249057,26.59186,1.14,193.0078125,8,5,-9999,1432177879.652116,6.10858154296875,-26.44570922851562,46.21826934814453,200.4567565917969,187.9061737060547,10,8215.688776125,-0.210205078125,-0.0698394775390625,-0.8722381591796875,8215.686029125001,0.4160632602580983,-0.01757073792401579,-0.5100475467075397
2015-05-21 13:11:19.744,286,1432177879.231801,-33.8890790334287,151.1930915249057,26.59186,1.14,193.0078125,8,5,-9999,1432177879.730928,4.553375244140625,-26.61795043945312,46.58316421508789,198.7926330566406,186.2420501708984,10,8215.747003125001,0.0556488037109375,0.1292877197265625,-1.06256103515625,8215.752252125001,-1.080699851393686,0.1223418920527141,-0.4785263720453618
2015-05-21 13:11:19.803,287,1432177879.231801,-33.8890790334287,151.1930915249057,26.59186,1.14,193.0078125,8,5,-9999,1432177879.770298,5.6593017578125,-27.92699432373047,46.11875152587891,200.6011352539062,188.0505523681641,10,8215.805244125,-0.0302581787109375,-0.030853271484375,-0.8330841064453125,8215.785364125,-0.261113623818454,0.06028677654445074,-0.02817890749412842
2015-05-21 13:11:19.860,288,1432177879.231801,-33.8890790334287,151.1930915249057,26.59186,1.14,193.0078125,8,5,-9999,1432177879.849113,6.62701416015625,-30.40727996826172,45.85337448120117,202.7235565185547,190.1729736328125,10,8215.863489125,0.1344146728515625,-0.1091156005859375,-0.7449798583984375,8215.851618125,-0.0072999908640162,0.1398777425664498,-0.1949537781220516
2015-05-21 13:11:19.926,289,1432177879.231801,-33.8890790334287,151.1930915249057,26.59186,1.14,193.0078125,8,5,-9999,1432177879.888517,6.2122802734375,-30.20058441162109,46.05241012573242,202.6780700683594,190.1274871826172,10,8215.921715125001,0.0308074951171875,-0.1236419677734375,-0.8564605712890625,8215.917841125001,0.1255877527893027,0.1768133900408678,-0.02844762044811741
2015-05-21 13:11:19.977,290,1432177879.231801,-33.8890790334287,151.1930915249057,26.59186,1.14,193.0078125,8,5,-9999,1432177879.96828,6.38507080078125,-29.40827178955078,45.88655090332031,203.8283081054688,191.2777252197266,10,8215.979974125001,0.0277862548828125,-0.0376434326171875,-1.103240966796875,8215.984090125001,0.4027629011420246,0.03927123975041746,0.1932791824286097
2015-05-21 13:11:20.035,291,1432177879.231801,-33.8890790334287,151.1930915249057,26.59186,1.14,193.0078125,8,5,-9999,1432177880.006929,6.14312744140625,-28.89154052734375,45.85337829589844,204.032958984375,191.4823760986328,10,8216.038202125001,-0.0061798095703125,-0.0516510009765625,-1.308944702148438,8216.017184125001,0.2258264730587951,0.1246971917207802,0.3700811208767902
2015-05-21 13:11:20.094,292,1432177879.231801,-33.8890790334287,151.1930915249057,26.59186,1.14,193.0078125,8,5,-9999,1432177880.085736,4.415130615234375,-28.40927124023438,45.85337829589844,202.19384765625,189.6432647705078,10,8216.096430125001,-0.01220703125,0.0431060791015625,-1.270584106445312,8216.083429125001,-0.4045341695830363,-0.0166503494512844,0.2000033978649508
2015-05-21 13:11:20.167,293,1432177879.231801,-33.8890790334287,151.1930915249057,26.59186,1.14,193.0078125,8,5,-9999,1432177880.164154,3.62030029296875,-28.65041351318359,46.21826934814453,200.5076904296875,187.9571075439453,10,8216.154688125,0.0563201904296875,0.103790283203125,-1.204330444335938,8216.149683125001,0.4750922258197046,-0.3206850752941095,0.2421316768328053
2015-05-21 13:11:20.210,294,1432177880.202269,-33.88909064236459,151.1930901838012,26.65771,1.14,193.0078125,8,5,-9999,1432177880.204303,4.622528076171875,-28.96044158935547,46.11875152587891,200.7919769287109,188.2413940429688,10,8216.212915125001,0.0661773681640625,0.167694091796875,-1.129196166992188,8216.182794125001,-0.1050212249550567,-0.3422950296434484,-0.05236626914644608
2015-05-21 13:11:20.268,295,1432177880.202269,-33.88909064236459,151.1930901838012,26.65771,1.14,193.0078125,8,5,-9999,1432177880.242883,4.622528076171875,-28.75376129150391,46.25144195556641,200.4139709472656,187.8633880615234,10,8216.271173125,-0.0168609619140625,0.01434326171875,-0.8486175537109375,8216.249048125001,0.3135406130377539,-0.1794259510702355,0.2777969964672554
2015-05-21 13:11:20.326,296,1432177880.202269,-33.88909064236459,151.1930901838012,26.65771,1.14,193.0078125,8,5,-9999,1432177880.321673,5.555633544921875,-28.4437255859375,46.68268203735352,200.4148101806641,187.8642272949219,10,8216.329402125,-0.015869140625,-0.051727294921875,-0.65283203125,8216.315271125,0.3075122815942505,-0.3935638101046729,0.3271909115210641
2015-05-21 13:11:20.385,297,1432177880.202269,-33.88909064236459,151.1930901838012,26.65771,1.14,193.0078125,8,5,-9999,1432177880.359287,5.486541748046875,-27.47917175292969,47.08074951171875,199.3620452880859,186.8114624023438,10,8216.387628125001,-0.092864990234375,-0.1281280517578125,-0.6573486328125,8216.381525125,0.3127350068080049,-0.06494624318765338,0.2862072591897257
2015-05-21 13:11:20.443,298,1432177880.202269,-33.88909064236459,151.1930901838012,26.65771,1.14,193.0078125,8,5,-9999,1432177880.437934,5.69390869140625,-26.79019927978516,47.74419403076172,198.3095855712891,185.7590026855469,10,8216.445865125001,0.0166168212890625,-0.14959716796875,-0.93096923828125,8216.447748125,-0.06211556926500815,-0.3440705591422043,-0.1508001651451918
2015-05-21 13:11:20.501,299,1432177880.202269,-33.88909064236459,151.1930901838012,26.65771,1.14,193.0078125,8,5,-9999,1432177880.477417,5.5902099609375,-26.82463836669922,47.51198959350586,197.5978546142578,185.0472717285156,10,8216.504114125,-0.024505615234375,-0.0804290771484375,-1.302261352539062,8216.480859125,-0.3708220122920503,-0.1565139772639568,-0.2620249575434792
2015-05-21 13:11:20.579,300,1432177880.202269,-33.88909064236459,151.1930901838012,26.65771,1.14,193.0078125,8,5,-9999,1432177880.516591,5.86669921875,-26.89353179931641,46.64950942993164,198.1099243164062,185.5593414306641,10,8216.562342125,-0.15155029296875,-0.0484466552734375,-1.216140747070312,8216.547113125,-0.5589951159626511,0.1512531688466143,-0.4003367613889624
2015-05-21 13:11:20.617,301,1432177880.202269,-33.88909064236459,151.1930901838012,26.65771,1.14,193.0078125,8,5,-9999,1432177880.603129,5.313720703125,-29.16712951660156,45.58799743652344,198.6702270507812,186.1196441650391,10,8216.620596125,-0.0452880859375,0.095245361328125,-1.31890869140625,8216.613333125,0.2910757839784995,0.2984431528180947,-0.009415872350084155
2015-05-21 13:11:20.676,302,1432177880.202269,-33.88909064236459,151.1930901838012,26.65771,1.14,193.0078125,8,5,-9999,1432177880.657604,4.587921142578125,-30.1661376953125,45.62117004394531,199.3626098632812,186.8120269775391,10,8216.678841125,-0.0760650634765625,-0.014007568359375,-0.7493438720703125,8216.679590125001,0.02205896330912633,-0.2958146128221865,-0.1247384707176764
2015-05-21 13:11:20.736,303,1432177880.202269,-33.88909064236459,151.1930901838012,26.65771,1.14,193.0078125,8,5,-9999,1432177880.693835,4.622467041015625,-30.20058441162109,45.78702926635742,198.7007293701172,186.150146484375,10,8216.737073125001,-0.067413330078125,0.0965576171875,-0.9853973388671875,8216.712702125,-0.564536621558888,-0.4845879930024912,-0.1493676507948382
2015-05-21 13:11:20.811,304,1432177880.202269,-33.88909064236459,151.1930901838012,26.65771,1.14,193.0078125,8,5,-9999,1432177880.773788,6.4542236328125,-30.51062774658203,45.62117004394531,199.6969909667969,187.1464080810547,10,8216.795282125,-0.028106689453125,0.0412750244140625,-0.8470306396484375,8216.778925125,0.1787867924086165,-0.09747648958686227,0.04374029037567943
2015-05-21 13:11:20.850,305,1432177880.202269,-33.88909064236459,151.1930901838012,26.65771,1.14,193.0078125,8,5,-9999,1432177880.812478,6.385101318359375,-30.57952117919922,45.55482482910156,199.4403228759766,186.8897399902344,10,8216.853510125,-0.0551910400390625,-0.1226348876953125,-0.6983184814453125,8216.845178125001,0.3580593454000635,0.2172431048654697,0.1309569518630114
2015-05-21 13:11:20.908,306,1432177880.202269,-33.88909064236459,151.1930901838012,26.65771,1.14,193.0078125,8,5,-9999,1432177880.890803,5.624755859375,-29.13267517089844,45.48847961425781,199.1523590087891,186.6017761230469,10,8216.911737125001,-0.03167724609375,-0.0865631103515625,-0.977874755859375,8216.911397125001,0.1136219036954676,0.2621700998228885,-0.282084153190065
2015-05-21 13:11:20.968,307,1432177880.202269,-33.88909064236459,151.1930901838012,26.65771,1.14,193.0078125,8,5,-9999,1432177880.930208,5.382843017578125,-28.75374603271484,46.11875152587891,199.5152740478516,186.9646911621094,10,8216.969981125001,-0.025970458984375,0.0499114990234375,-1.343978881835938,8216.977655125,0.1558559101585983,0.2066807416661065,-0.06922061673723055
2015-05-21 13:11:21.027,308,1432177880.202269,-33.88909064236459,151.1930901838012,26.65771,1.14,193.0078125,8,5,-9999,1432177881.009116,4.795379638671875,-28.65040588378906,45.88655090332031,199.8713073730469,187.3207244873047,10,8217.028192125001,0.0032501220703125,-0.09503173828125,-1.165328979492188,8217.010767125001,0.6545818264399931,0.4157538009394311,0.3519838760052657
2015-05-21 13:11:21.083,309,1432177880.202269,-33.88909064236459,151.1930901838012,26.65771,1.14,193.0078125,8,5,-9999,1432177881.048382,4.035064697265625,-28.03034210205078,46.54999542236328,199.6929473876953,187.1423645019531,10,8217.086413125,0.131439208984375,-0.0270538330078125,-1.381622314453125,8217.076990125001,0.2008992852556535,0.02089063453890857,0.1058316248747679
2015-05-21 13:11:21.142,310,1432177880.202269,-33.88909064236459,151.1930901838012,26.65771,1.14,193.0078125,8,5,-9999,1432177881.127272,3.6549072265625,-26.89354705810547,46.91488647460938,199.4609375,186.9103546142578,10,8217.144647125,0.0193634033203125,-0.010467529296875,-0.9217071533203125,8217.110132125001,0.7350279334880166,-0.440387508390446,0.1981237387675729
2015-05-21 13:11:21.205,311,1432177880.202269,-33.88909064236459,151.1930901838012,26.65771,1.14,193.0078125,8,5,-9999,1432177881.166625,4.622589111328125,-26.13567352294922,47.04757690429688,199.4887237548828,186.9381408691406,10,8217.202865125,0.0513153076171875,0.1273651123046875,-1.167877197265625,8217.209467125,0.1026976169039626,0.02441905666715455,0.2966939886141307
2015-05-21 13:11:21.258,312,1432177881.242481,-33.88910489159998,151.1930886750586,23.82343,1.49,197.2265625,8,5,-9999,1432177881.245407,5.037322998046875,-27.16912841796875,47.18026733398438,199.3823547363281,186.8317718505859,10,8217.261102125001,-0.0020904541015625,-0.087982177734375,-0.724517822265625,8217.242578125,0.531097171963526,-0.006676278536719643,0.4016137471316554
2015-05-21 13:11:21.316,313,1432177881.242481,-33.88910489159998,151.1930886750586,23.82343,1.49,197.2265625,8,5,-9999,1432177881.284682,4.96820068359375,-26.48017120361328,47.24661254882812,199.1295318603516,186.5789489746094,10,8217.319330125001,0.0317230224609375,-0.1890869140625,-0.749481201171875,8217.308831125001,0.3668267380247134,-0.2002563981685083,0.220948893522315
2015-05-21 13:11:21.374,314,1432177881.242481,-33.88910489159998,151.1930886750586,23.82343,1.49,197.2265625,8,5,-9999,1432177881.361787,5.48663330078125,-25.27447509765625,48.2086067199707,198.6786651611328,186.1280822753906,10,8217.377558125001,0.0028076171875,-0.086334228515625,-0.9694671630859375,8217.375055125001,0.4433598624830835,-0.03292998687882978,-0.2297117587731117
2015-05-21 13:11:21.444,315,1432177881.242481,-33.88910489159998,151.1930886750586,23.82343,1.49,197.2265625,8,5,-9999,1432177881.44079,5.21014404296875,-23.20757293701172,48.93839263916016,198.8114929199219,186.2609100341797,10,8217.435785125001,-0.037139892578125,-0.1136627197265625,-1.030517578125,8217.441309125001,0.1636736195385259,0.2896512591114161,-0.315694844043519
